command_auxdaq_sdwrite,flag_auxdaq_sdwrite,time_internal_seconds,time_auxdaq_us,position_engine_ticks,speed_engine_rpm,position_secondary_ticks,speed_secondary_rpm,pressure_frontbrake_psi,pressure_rearbrake_psi,lds_pedal_mm,imu_acceleration_x,imu_acceleration_y,imu_acceleration_z,imu_gyro_x,imu_gyro_y,imu_gyro_z,imu_temperature
0,0,0.774528,1590207475,3466267,1761,20387,374,0,2066.40625,116.879272460938,0.650847792625427,2.07218432426453,2.04347062110901,0.0842994004487991,0.0842994004487991,-0.0635299831628799,48.296875
0,0,0.792513,1590247529,3466952,1648,20394,371,0,2066.99194335938,117.022705078125,5.69491815567017,4.30229473114014,10.5236349105835,-0.0232128798961639,-0.0232128798961639,0.212581098079681,45.9140625
0,0,0.842524,1590287599,3467618,1719,20402,374,0,2066.953125,116.909790039063,0.114855483174324,-4.46022176742554,10.1886386871338,-0.0708603635430336,-0.0708603635430336,0.235793977975845,46.01171875
0,0,0.86953,1590327659,3468259,1558,20409,383,0,2063.28125,116.5283203125,11.633903503418,2.20139670372009,10.1886386871338,0.00733038270846009,0.00733038270846009,0.133168622851372,46.390625
0,0,0.922557,1590367717,3468905,1627,20416,373,0,2060.5078125,116.22314453125,-2.13918328285217,1.00019991397858,9.71964550018311,0.0842994004487991,0.0842994004487991,0.125838235020638,47.57421875
0,0,0.949549,1590407777,3469513,1488,20424,346,0,2065.54663085938,116.482543945313,-5.13499736785889,6.3074803352356,6.37447929382324,-0.117286123335361,-0.117286123335361,0.274889349937439,45.859375
0,0,0.988557,1590447840,3470191,1793,20431,403,0,2066.09375,116.696166992188,1.20598256587982,-1.50269246101379,17.7595291137695,-0.0549778714776039,-0.0549778714776039,0.331088960170746,46.40234375
0,0,1.039573,1590487900,3470848,1597,20438,370,0,2066.875,116.650390625,0.847059190273285,-1.9286150932312,11.7822589874268,0.0305432621389627,0.0305432621389627,0.101403623819351,45.9609375
0,0,1.074579,1590527966,3471574,1773,20446,405,0,2066.24975585938,116.189575195313,-7.60917568206787,1.20598256587982,9.50907707214355,0.100181899964809,0.100181899964809,0.141720727086067,46.34765625
0,0,1.110587,1590568023,3472262,1764,20454,379,0,2067.265625,116.351318359375,4.53679132461548,-0.100498549640179,2.51724934577942,0.130725160241127,0.130725160241127,0.228463590145111,46.75390625
0,0,1.153594,1590608086,3472954,1680,20462,402,0,2066.953125,116.452026367188,-6.22133874893188,-5.86720132827759,10.0977115631104,-0.0390953756868839,-0.0390953756868839,0.212581098079681,48.08984375
0,0,1.227611,1590648146,3473637,1783,20469,400,0,2062.10913085938,116.445922851563,8.81994438171387,-0.071784682571888,11.9162569046021,0.0146607654169202,0.0146607654169202,0,46
0,0,1.234612,1590688208,3474310,1645,20477,385,0,2063.7890625,115.975952148438,-11.696117401123,0.028713870793581,10.4327058792114,-0.0549778714776039,-0.0549778714776039,0.157603219151497,48.1015625
0,0,1.271636,1590728263,3474985,1665,20485,375,0,2066.171875,116.336059570313,-11.7535438537598,0.0622133873403072,13.3567361831665,-0.0390953756868839,-0.0390953756868839,0.35430184006691,45.97265625
0,0,1.313632,1590768319,3475624,1569,20492,366,0,2065.7421875,116.796875,-4.18265390396118,-2.61774802207947,9.18843936920166,0.0464257597923279,0.0464257597923279,0.267558962106705,46.00390625
0,0,1.350641,1590808375,3476276,1567,20499,358,0,2066.3671875,116.925048828125,8.81037330627441,-3.86680150032043,15.2087812423706,0.0610865242779255,0.0610865242779255,0.0940732434391975,47.47265625
0,0,1.399665,1590848436,3476882,1506,20507,344,0,2066.40625,116.738891601563,1.15812623500824,-2.39282274246216,8.36530780792236,-0.0855211317539215,-0.0855211317539215,0.204028993844986,46.0625
0,0,1.471666,1590888496,3477564,1638,20514,377,0,2066.2109375,116.647338867188,-3.11066937446594,-5.01535654067993,8.57587718963623,0.0378736443817616,0.0378736443817616,0.101403623819351,46.03125
0,0,1.473683,1590928561,3478201,1667,20521,362,0,2066.99194335938,116.708374023438,11.169695854187,-6.29312419891357,7.29810953140259,0.0146607654169202,0.0146607654169202,0.133168622851372,48.25390625
0,0,1.515692,1590968630,3478935,1719,20529,376,0,2065.3515625,116.671752929688,8.93480014801025,2.24925327301025,10.8777713775635,0.0146607654169202,0.0146607654169202,0.0623082555830479,48.85546875
0,0,1.549383,1591008691,3479626,1805,20536,344,0,2057.9296875,116.412353515625,1.33040940761566,5.93420028686523,6.75733137130737,-0.108734011650085,-0.108734011650085,0.370184332132339,45.9375
0,0,1.605413,1591048752,3480301,1639,20544,384,0,2062.65625,117.095947265625,-9.82014465332031,-1.94297206401825,10.8347015380859,-0.140499010682106,-0.140499010682106,0.0867428630590439,46.26171875
0,0,1.65543,1591088823,3480981,1710,20552,393,0,2063.4765625,116.93115234375,7.36989402770996,-0.167497590184212,11.8109722137451,-0.0390953756868839,-0.0390953756868839,0.322536826133728,46.35546875
0,0,1.716419,1591128892,3481643,1624,20559,381,0,2062.85131835938,116.937255859375,-3.42652201652527,-7.66660356521606,15.7017030715942,0.185703039169312,0.185703039169312,0.290771842002869,47.1015625
0,0,1.719434,1591168960,3482315,1630,20567,390,0,2062.734375,116.9921875,-0.224925339221954,1.38305151462555,9.58086204528809,0.100181899964809,0.100181899964809,0.133168622851372,46.06640625
0,0,1.749429,1591209033,3482962,1622,20574,373,0,2062.421875,117.034912109375,7.34596586227417,-4.46979236602783,15.538990020752,0.0610865242779255,0.0610865242779255,0.212581098079681,46.1484375
0,0,1.789436,1591249092,3483625,1599,20582,377,0,2056.2890625,116.720581054688,-6.57069110870361,-4.91964340209961,8.35573768615723,0.162490159273148,0.162490159273148,0.0867428630590439,45.9765625
0,0,1.849451,1591289153,3484269,1696,20589,384,0,2062.34350585938,116.754150390625,1.30648124217987,-0.717846870422363,0.780060172080994,0.123394772410393,0.123394772410393,0.180816113948822,46.53515625
0,0,1.872456,1591329220,3484931,1588,20597,366,0,2063.08569335938,116.873168945313,2.24925327301025,-2.63689064979553,13.150954246521,0.116064392030239,0.116064392030239,0.0549778714776039,46.078125
0,0,1.916479,1591369283,3485600,1860,20604,364,0,2063.0078125,116.58935546875,0.717846870422363,-2.83310198783875,6.50369167327881,0.178372651338577,0.178372651338577,0.133168622851372,46.10546875
0,0,1.956494,1591409347,3486283,1633,20612,378,0,2063.125,116.348266601563,2.70388960838318,0.196211457252502,12.7920303344727,-0.0940732434391975,-0.0940732434391975,-0.252898216247559,47.9140625
0,0,1.991485,1591449406,3486978,1769,20619,390,0,2063.32006835938,116.522216796875,9.37986469268799,7.30289459228516,8.86301422119141,0.0769690200686455,0.0769690200686455,0.377514719963074,46.61328125
0,0,2.049513,1591489469,3487641,1617,20627,382,0,2063.2421875,117.17529296875,-2.00518536567688,1.19641137123108,8.63330364227295,-0.186924755573273,-0.186924755573273,0.33841934800148,46.171875
0,0,2.072514,1591529529,3488334,1687,20635,363,0,2055.9375,117.178344726563,-9.00658512115479,-0.0382851622998714,5.96769952774048,-0.04764748737216,-0.04764748737216,0.173485726118088,46.87890625
0,0,2.110533,1591569590,3488992,1669,20642,358,0,2061.2890625,115.97900390625,-9.12143898010254,-6.47976350784302,14.5387907028198,-0.0549778714776039,-0.0549778714776039,0.173485726118088,46.015625
0,0,2.168536,1591609650,3489689,1667,20649,373,0,2062.85131835938,115.914916992188,9.70528888702393,-2.25882434844971,7.7144603729248,0.107512280344963,0.107512280344963,0.133168622851372,46.140625
0,0,2.245563,1591649715,3490367,1837,20657,369,0,2062.6953125,116.5771484375,-1.35433769226074,2.25882434844971,6.58026218414307,-0.0232128798961639,-0.0232128798961639,0.0867428630590439,46.06640625
0,0,2.258563,1591689783,3491055,1658,20664,374,0,2062.7734375,118.048095703125,-7.63310384750366,-5.00099897384644,13.3998069763184,-0.0232128798961639,-0.0232128798961639,0.417831808328629,48.21875
0,0,2.312966,1591729846,3491752,1794,20672,398,0,2063.32006835938,117.739868164063,-1.40697968006134,-2.83788776397705,20.4203491210938,0.130725160241127,0.130725160241127,0.0146607654169202,46.140625
0,0,2.316966,1591769907,3492429,1654,20680,386,0,2063.125,116.998291015625,4.79521656036377,4.10608386993408,14.1176528930664,0.0769690200686455,0.0769690200686455,0.196698606014252,47.50390625
0,0,2.352977,1591809970,3493137,1725,20688,389,0,2060.3125,117.312622070313,0.693918585777283,5.10628318786621,5.76191711425781,-0.0708603635430336,-0.0708603635430336,0.109955742955208,48.5859375
0,0,2.401984,1591850028,3493811,1708,20695,367,0,2056.8359375,118.182373046875,-3.13459801673889,3.45523595809937,10.0594263076782,-0.131946891546249,-0.131946891546249,0.196698606014252,46.015625
0,0,2.441999,1591890092,3494495,1645,20703,374,0,2062.1484375,119.137573242188,7.2741813659668,-4.71386051177979,10.3944215774536,-0.117286123335361,-0.117286123335361,0.173485726118088,46.046875
0,0,2.471999,1591930157,3495163,1797,20710,374,0,2062.9296875,118.536376953125,-6.56112003326416,-3.16809725761414,9.62393283843994,0.00733038270846009,0.00733038270846009,0.219911485910416,48.46875
0,0,2.522013,1591970218,3495835,1625,20718,391,0,2063.0078125,118.289184570313,1.32562363147736,-0.110069841146469,12.9547414779663,-0.03176499158144,-0.03176499158144,0.290771842002869,46.10546875
0,0,2.588027,1592010285,3496530,1819,20726,406,0,2066.8359375,119.158935546875,-4.82393026351929,3.18245410919189,6.47019243240356,0.0305432621389627,0.0305432621389627,0.149051114916801,46.18359375
0,0,2.59203,1592050346,3497210,1661,20734,391,0,2066.875,119.86083984375,-1.4021942615509,-1.69411838054657,3.3308093547821,0.0146607654169202,0.0146607654169202,0.149051114916801,47.11328125
0,0,2.632037,1592090407,3497911,1705,20743,402,0,2067.109375,119.183349609375,4.89571523666382,-4.79521656036377,9.50429153442383,0.0232128798961639,0.0232128798961639,0.244346097111702,47.984375
0,0,2.681068,1592130464,3498577,1680,20750,379,0,2059.64819335938,119.113159179688,-13.7635164260864,-6.15912580490112,15.6155605316162,0,0,0.212581098079681,48.484375
0,0,2.714071,1592170528,3499255,1621,20758,387,0,2065.625,119.027709960938,8.80080223083496,-0.373280346393585,7.55174875259399,0.0696386322379112,0.0696386322379112,0.125838235020638,46.0546875
0,0,2.752084,1592210589,3499913,1770,20766,375,0,2065.703125,119.1162109375,1.33040940761566,1.3686945438385,7.34596586227417,0,0,0.0232128798961639,47.421875
0,0,2.791074,1592250653,3500584,1605,20773,374,0,2066.4453125,119.644165039063,5.40777921676636,1.26819598674774,11.030912399292,-0.140499010682106,-0.140499010682106,0.164933606982231,46.35546875
0,0,2.848088,1592290715,3501253,1775,20781,384,0,2066.09375,120.034790039063,-1.59840548038483,-0.622133910655975,15.5724906921387,0.00733038270846009,0.00733038270846009,-0.01588249579072,47.44921875
0,0,2.872091,1592330779,3501911,1593,20788,376,0,2066.6796875,119.247436523438,-1.44047927856445,3.52702045440674,4.28315305709839,0.0928515195846558,0.0928515195846558,0.204028993844986,48.453125
0,0,2.911451,1592370838,3502609,1781,20796,396,0,2066.8359375,119.232177734375,-5.21635293960571,0.923629522323608,9.86800003051758,0,0,0.204028993844986,46.21484375
0,0,2.957472,1592410896,3503279,1644,20804,384,0,2067.03125,119.229125976563,-4.39322280883789,-0.722632467746735,11.2941226959229,-0.0781907513737679,-0.0781907513737679,0.188146486878395,46.09375
0,0,2.999467,1592450964,3503991,1719,20811,373,0,2064.6875,118.98193359375,-3.18245410919189,-1.19641137123108,4.59421968460083,-0.0549778714776039,-0.0549778714776039,0.0464257597923279,47.53515625
0,0,3.040474,1592491026,3504668,1751,20819,372,0,2066.01538085938,119.168090820313,3.16331148147583,2.43110799789429,2.9048867225647,0.00733038270846009,0.00733038270846009,0.377514719963074,48.53515625
0,0,3.112562,1592531092,3505347,1639,20826,376,0,2066.40625,119.631958007813,0.272781759500504,-1.55054903030396,13.3854503631592,-0.00855211354792118,-0.00855211354792118,0.0623082555830479,46.29296875
0,0,3.115562,1592571154,3506011,1719,20834,386,0,2066.71875,119.509887695313,-12.6484613418579,-9.13579654693604,8.05902671813965,0.116064392030239,0.116064392030239,0.212581098079681,46.29296875
0,0,3.152574,1592611212,3506649,1545,20841,363,0,2066.4453125,119.25048828125,4.00079965591431,-3.34516596794128,12.7776727676392,-0.0965167060494423,-0.0965167060494423,0.0549778714776039,46.1640625
0,0,3.207586,1592651276,3507321,1769,20849,396,0,2066.6015625,119.281005859375,-9.04965496063232,3.36909413337708,13.3519506454468,0.216246291995049,0.216246291995049,0.219911485910416,46.1328125
0,0,3.241612,1592691333,3507975,1590,20857,384,0,2066.71875,119.34814453125,6.91525793075562,1.70847535133362,8.55673313140869,0.0842994004487991,0.0842994004487991,0.306654363870621,47.640625
0,0,3.272622,1592731400,3508689,1783,20864,417,0,2060.39038085938,119.390869140625,-10.2891368865967,2.11046981811523,10.1503534317017,-0.0390953756868839,-0.0390953756868839,-0.0879645943641663,47.26171875
0,0,3.318624,1592771460,3509368,1697,20872,396,0,2063.7890625,118.911743164063,5.80498790740967,-2.11525511741638,12.0885400772095,-0.03176499158144,-0.03176499158144,0.0464257597923279,48.1484375
0,0,3.384624,1592811520,3510069,1693,20880,373,0,2065.8203125,119.284057617188,-11.5477628707886,-0.67956155538559,10.4853487014771,0.169820547103882,0.169820547103882,0.212581098079681,46.08984375
0,0,3.395642,1592851584,3510742,1746,20887,377,0,2066.24975585938,119.256591796875,4.80478763580322,2.50289249420166,5.66141843795776,0.146607652306557,0.146607652306557,0.0549778714776039,47.97265625
0,0,3.43265,1592891643,3511398,1594,20895,374,0,2066.328125,119.406127929688,3.0484561920166,-1.6223338842392,9.98285675048828,-0.0549778714776039,-0.0549778714776039,0.164933606982231,46.11328125
0,0,3.478648,1592931705,3512050,1661,20902,370,0,2066.2109375,119.439697265625,-0.220139682292938,0.837487936019897,11.6147603988647,0.0842994004487991,0.0842994004487991,0.0623082555830479,48.7265625
0,0,3.515655,1592971760,3512667,1505,20909,352,0,2066.640625,119.384765625,-0.650847792625427,1.8185453414917,11.1888380050659,0.0842994004487991,0.0842994004487991,0.164933606982231,47.0546875
0,0,3.555683,1593011824,3513335,1789,20917,396,0,2063.6328125,119.22607421875,-9.16451072692871,-2.50767827033997,13.1270246505737,0.0464257597923279,0.0464257597923279,0.361632227897644,47.1640625
0,0,3.594687,1593051890,3513992,1592,20924,368,0,2056.328125,119.23828125,1.13898360729218,0.59820568561554,9.51864814758301,0.0696386322379112,0.0696386322379112,0.0464257597923279,46.10546875
0,0,3.651684,1593091958,3514717,1810,20932,402,0,2062.57788085938,118.978881835938,11.5046911239624,0.526420950889587,6.7621169090271,-0.03176499158144,-0.03176499158144,0.290771842002869,46.1328125
0,0,3.672692,1593132021,3515408,1739,20939,373,0,2062.890625,119.15283203125,-6.67597532272339,3.55573463439941,17.6686038970947,0.146607652306557,0.146607652306557,-0.03176499158144,48.03125
0,0,3.71472,1593172081,3516104,1682,20947,379,0,2063.359375,119.363403320313,-9.19801044464111,2.75174617767334,6.59940528869629,-0.108734011650085,-0.108734011650085,-0.0684169083833694,46.15234375
0,0,3.75873,1593212141,3516776,1760,20954,369,0,2062.7734375,119.631958007813,2.38325142860413,-1.51704955101013,17.4006080627441,-0.0549778714776039,-0.0549778714776039,0.267558962106705,46.20703125
0,0,3.799722,1593252212,3517442,1631,20962,373,0,2063.7109375,119.332885742188,3.24466776847839,-4.13479804992676,9.61914730072021,0.0610865242779255,0.0610865242779255,0.0940732434391975,48.63671875
0,0,3.832728,1593292275,3518108,1695,20969,379,0,2063.2421875,119.265747070313,9.19322490692139,5.1110692024231,6.11605453491211,-0.0232128798961639,-0.0232128798961639,0.274889349937439,46.24609375
0,0,3.911763,1593332336,3518749,1572,20977,365,0,2057.34375,119.345092773438,-10.3848495483398,1.76590323448181,4.79043102264404,0.0305432621389627,0.0305432621389627,0.180816113948822,48.6328125
0,0,3.914765,1593372400,3519434,1719,20984,390,0,2061.5234375,118.972778320313,2.63210463523865,4.64207601547241,7.67617511749268,-0.155159771442413,-0.155159771442413,0.346971452236176,48.70703125
0,0,3.957755,1593412457,3520090,1615,20992,378,0,2062.5390625,119.34814453125,-0.172283232212067,0.478564500808716,8.35573768615723,0.169820547103882,0.169820547103882,-0.0635299831628799,46.26171875
0,0,3.995782,1593452523,3520805,1726,21000,769,0,2063.28125,119.393920898438,8.54716205596924,-0.492921471595764,2.25882434844971,0,0,0.0940732434391975,48.046875
0,0,4.033793,1593492582,3521486,1776,21008,384,0,2062.5,119.332885742188,5.02014207839966,1.33040940761566,6.0299129486084,-0.124616511166096,-0.124616511166096,0.267558962106705,46.76953125
0,0,4.073804,1593532647,3522162,1614,21015,373,0,2063.2421875,119.384765625,2.11046981811523,-0.74656069278717,13.8065872192383,-0.0549778714776039,-0.0549778714776039,-0.12705996632576,46.83984375
0,0,4.155819,1593572704,3522821,1711,21023,381,0,2063.28125,119.375610351563,-1.59361982345581,-2.45025038719177,10.3513517379761,0.0610865242779255,0.0610865242779255,0.204028993844986,47.5
0,0,4.164821,1593612761,3523453,1526,21030,364,0,2063.4375,119.27490234375,9.47079181671143,1.21076834201813,11.2366952896118,-0.0940732434391975,-0.0940732434391975,-0.12705996632576,46.09375
0,0,4.196809,1593652817,3524097,1645,21037,363,0,2063.4375,119.287109375,-2.51246380805969,3.75673174858093,9.69093132019043,-0.0623082555830479,-0.0623082555830479,0.0781907513737679,46.3359375
0,0,4.245819,1593692876,3524707,1485,21044,353,0,2054.80444335938,119.271850585938,-4.90050077438354,-1.04805624485016,6.26919603347778,-0.101403623819351,-0.101403623819351,0.133168622851372,46.16015625
0,0,4.282866,1593732938,3525379,1780,21052,400,0,2062.4609375,118.338012695313,-7.73360300064087,-4.60857629776001,19.0133686065674,-0.0940732434391975,-0.0940732434391975,0.283441454172134,48.0390625
0,0,4.319893,1593772999,3526034,1593,21059,363,0,2062.96875,118.4326171875,-3.39780831336975,-1.96211457252502,9.79621601104736,0.0537561401724815,0.0537561401724815,0.0867428630590439,46.88671875
0,0,4.356902,1593813065,3526766,1809,21067,401,0,2062.96875,118.740844726563,-3.06281304359436,3.05324172973633,6.49890613555908,-0.0549778714776039,-0.0549778714776039,-0.100181899964809,46.6328125
0,0,4.418914,1593853129,3527465,1781,21075,377,0,2062.85131835938,118.838500976563,3.88115835189819,2.6751754283905,0.00957129057496786,-0.289550095796585,-0.289550095796585,0.35430184006691,48.59765625
0,0,4.434901,1593893190,3528155,1673,21082,375,0,2063.359375,118.853759765625,-2.95752882957458,-2.24446773529053,8.62851810455322,0.123394772410393,0.123394772410393,-0.01588249579072,46.9609375
0,0,4.477907,1593933258,3528826,1744,21089,380,0,2063.125,118.832397460938,4.05344152450562,-1.48833572864532,10.0354976654053,-0.186924755573273,-0.186924755573273,0.299323976039886,47.42578125
0,0,4.516937,1593973317,3529486,1614,21097,381,0,2056.4453125,118.765258789063,2.35453748703003,3.91465783119202,6.74776029586792,-0.0623082555830479,-0.0623082555830479,0.26022857427597,47.67578125
0,0,4.556947,1594013380,3530158,1695,21105,390,0,2064.4140625,118.408203125,-9.47557735443115,1.55054903030396,7.7910304069519,-0.0623082555830479,-0.0623082555830479,0,48.10546875
0,0,4.594954,1594053441,3530802,1581,21112,373,0,2065.8203125,118.896484375,1.17726874351501,1.172483086586,8.27438068389893,-0.108734011650085,-0.108734011650085,0.141720727086067,48.3515625
0,0,4.669966,1594093502,3531486,1682,21120,387,0,2066.796875,119.046020507813,10.7054882049561,-2.29232406616211,10.700701713562,0.00733038270846009,0.00733038270846009,0.133168622851372,48.58984375
0,0,4.673971,1594133565,3532140,1634,21127,378,0,2066.40625,118.991088867188,9.02572631835938,0.569491803646088,14.553147315979,0.0232128798961639,0.0232128798961639,0.204028993844986,46.23046875
0,0,4.715964,1594173627,3532846,1698,21135,389,0,2066.48413085938,119.049072265625,-5.61834764480591,0.961914658546448,9.82492923736572,-0.0390953756868839,-0.0390953756868839,0.164933606982231,48.29296875
0,0,4.758974,1594213683,3533530,1818,21143,373,0,2066.71875,119.085693359375,-2.52203488349915,-1.51704955101013,8.77208805084229,-0.03176499158144,-0.03176499158144,0.0146607654169202,48.28125
0,0,4.79598,1594253746,3534217,1654,21151,378,0,2066.640625,118.9697265625,5.03449869155884,-2.19182538986206,11.3515510559082,-0.256563395261765,-0.256563395261765,0.0867428630590439,47.8671875
0,0,4.83599,1594293811,3534897,1733,21158,363,0,2058.20288085938,118.939208984375,-8.57587718963623,6.18783950805664,7.47996377944946,-0.186924755573273,-0.186924755573273,0.00733038270846009,47.296875
0,0,4.882999,1594333869,3535543,1575,21166,374,0,2064.57006835938,118.798828125,-3.86201596260071,1.47876441478729,7.92981433868408,-0.272445887327194,-0.272445887327194,0.173485726118088,48.6171875
0,0,4.940032,1594373930,3536222,1692,21173,396,0,2065.46875,119.3115234375,4.20658206939697,0.478564500808716,15.2901363372803,-0.249233022332191,-0.249233022332191,0,47.19921875
0,0,4.955038,1594413990,3536864,1584,21181,381,0,2066.328125,119.320678710938,-3.87158679962158,-5.13978338241577,11.5669040679932,-0.240680903196335,-0.240680903196335,0.173485726118088,46.2890625
0,0,4.995044,1594454056,3537570,1718,21189,404,0,2066.2109375,119.183349609375,12.0933265686035,-0.478564500808716,4.20658206939697,-0.124616511166096,-0.124616511166096,-0.0879645943641663,47.4375
0,0,5.038051,1594494117,3538249,1778,21197,402,0,2066.99194335938,118.954467773438,2.14875459671021,0.435493737459183,6.34576559066772,-0.101403623819351,-0.101403623819351,0.219911485910416,46.1484375
0,0,5.076058,1594534184,3538948,1676,21205,405,0,2066.8359375,119.003295898438,-5.42692184448242,-11.1984100341797,12.2225379943848,0.0232128798961639,0.0232128798961639,0.0464257597923279,48.52734375
0,0,5.121073,1594574247,3539644,1837,21213,402,0,2065.9375,119.04296875,-5.03928470611572,-1.69890415668488,9.36550807952881,-0.0781907513737679,-0.0781907513737679,0.0781907513737679,47.81640625
0,0,5.175065,1594614304,3540333,1681,21221,403,0,2058.0859375,119.845581054688,-5.58006238937378,1.18684005737305,11.1409816741943,-0.04764748737216,-0.04764748737216,0.219911485910416,47.6015625
0,0,5.200078,1594654368,3541031,1717,21229,365,0,2065.4296875,121.450805664063,-1.93818628787994,-4.85264444351196,13.146167755127,-0.117286123335361,-0.117286123335361,0.109955742955208,46.1484375
0,0,5.236095,1594694426,3541692,1636,21237,396,0,2066.328125,121.86279296875,-0.708275496959686,-3.84765863418579,8.25523853302002,-0.178372651338577,-0.178372651338577,0.173485726118088,46.125
0,0,5.281095,1594734490,3542368,1621,21244,383,0,2066.24975585938,121.487426757813,-0.708275496959686,-4.09172677993774,5.254638671875,-0.0940732434391975,-0.0940732434391975,0.173485726118088,48.390625
0,0,5.325101,1594774552,3543011,1661,21252,388,0,2066.40625,121.392822265625,0.74656069278717,3.20638227462769,4.68993234634399,-0.24312436580658,-0.24312436580658,0.0708603635430336,46.2421875
0,0,5.357109,1594814614,3543669,1570,21260,358,0,2066.953125,122.415161132813,-13.179666519165,-3.0197422504425,4.18743944168091,0.107512280344963,0.107512280344963,0.0549778714776039,48.546875
0,0,5.435126,1594854669,3544317,1786,21267,381,0,2066.71875,122.140502929688,-11.557333946228,-6.02034187316895,5.16849660873413,0.153938040137291,0.153938040137291,0.0867428630590439,46.20703125
0,0,5.437132,1594894732,3544996,1620,21275,385,0,2066.640625,122.1435546875,6.39362192153931,1.09112703800201,17.6159610748291,0.201585531234741,0.201585531234741,0.322536826133728,48.27734375
0,0,5.480121,1594934794,3545688,1852,21283,410,0,2058.6328125,122.308349609375,3.8572301864624,6.90090036392212,3.84765863418579,0.340862780809402,0.340862780809402,0.141720727086067,47.09375
0,0,5.525151,1594974861,3546375,1666,21290,375,0,2066.0546875,123.080444335938,5.18763971328735,9.10708332061768,9.47557735443115,-0.434936046600342,-0.434936046600342,0.858876526355743,46.2421875
0,0,5.563139,1595014926,3547072,1711,21298,392,0,2063.08569335938,123.4375,1.01455676555634,1.34955203533173,9.12143898010254,-0.117286123335361,-0.117286123335361,0.26022857427597,48.546875
0,0,5.597149,1595054980,3547735,1640,21306,373,0,2063.046875,124.176025390625,-14.9168577194214,-17.084753036499,18.2333087921143,-0.0549778714776039,-0.0549778714776039,1.41842913627625,46.109375
0,0,5.649161,1595095043,3548412,1640,21313,393,4.84374141693115,2062.85131835938,122.36328125,7.37467908859253,-2.54596328735352,9.85842990875244,-0.270002454519272,-0.270002454519272,-0.261450320482254,46.47265625
0,0,5.708193,1595135107,3549070,1717,21321,395,3.67185473442078,2063.046875,121.804809570313,-1.43090796470642,-3.57009124755859,9.55214881896973,0.38728854060173,0.38728854060173,0.464257568120956,47.9296875
0,0,5.716176,1595175168,3549727,1583,21329,397,7.30466842651367,2063.28125,122.552490234375,6.77168846130371,0.803988397121429,13.4715909957886,0.317649930715561,0.317649930715561,-0.766025006771088,48.58984375
0,0,5.757184,1595215236,3550391,1808,21338,396,8.98435688018799,2055.078125,124.072265625,5.5322060585022,-2.12961220741272,8.34616565704346,0.139277264475822,0.139277264475822,0.117286123335361,46.24609375
0,0,5.801193,1595255299,3551070,1647,21346,421,9.5703010559082,2062.03125,124.264526367188,-1.4021942615509,2.94795751571655,10.5332050323486,0.0842994004487991,0.0842994004487991,-0.102625355124474,46.85546875
0,0,5.841218,1595295365,3551783,1843,21354,421,10.8202991485596,2062.5390625,124.96337890625,-9.15493965148926,1.39262270927429,14.1224393844604,0.162490159273148,0.162490159273148,0.448375105857849,47.3359375
0,0,5.87621,1595335430,3552486,1734,21363,422,9.60937118530273,2063.1640625,125.784301757813,5.22592496871948,-1.87118721008301,13.0839538574219,0.00733038270846009,0.00733038270846009,0.0867428630590439,46.1484375
0,0,5.916236,1595375490,3553206,1741,21371,409,9.60937118530273,2062.9296875,126.2451171875,-8.30788040161133,2.41196513175964,0.497707098722458,-0.14294245839119,-0.14294245839119,0.228463590145111,46.97265625
0,0,5.995253,1595415550,3553895,1782,21379,405,11.6015672683716,2063.2421875,126.797485351563,8.32702255249023,-1.86640179157257,8.4562349319458,0.0769690200686455,0.0769690200686455,0.0232128798961639,48.09375
0,0,5.997238,1595455611,3554583,1676,21387,396,10.8984413146973,2063.359375,127.20947265625,0.464207619428635,-2.49332118034363,8.79601669311523,-0.03176499158144,-0.03176499158144,0.212581098079681,48.11328125
0,0,6.040263,1595495669,3555260,1725,21394,398,8.35937309265137,2063.1640625,127.456665039063,1.97647154331207,0.378066003322601,14.9312143325806,-0.124616511166096,-0.124616511166096,0,46.12109375
0,0,6.076271,1595535728,3555910,1588,21402,373,7.49999284744263,2055.03881835938,127.523803710938,5.38863611221313,1.00498557090759,11.1840534210205,-0.01588249579072,-0.01588249579072,0.0940732434391975,47.9765625
0,0,6.116265,1595575788,3556574,1650,21410,384,8.16404819488525,2062.421875,127.685546875,-5.2211389541626,5.00578498840332,5.78105974197388,-0.155159771442413,-0.155159771442413,0.0464257597923279,46.1484375
0,0,6.157274,1595615853,3557197,1531,21417,373,8.5937385559082,2062.5,128.167724609375,4.08694124221802,0.0813559740781784,9.52343368530273,-0.0855211317539215,-0.0855211317539215,0.0146607654169202,46.515625
0,0,6.198285,1595655915,3557885,1708,21425,406,11.9921865463257,2062.9296875,128.427124023438,-4.33100938796997,-4.54636335372925,13.0791683197021,-0.101403623819351,-0.101403623819351,0.224798396229744,46.26171875
0,0,6.250311,1595695974,3558539,1631,21433,384,14.4140424728394,2063.0078125,128.72314453125,-1.17726874351501,-4.90050077438354,20.3964195251465,0.0842994004487991,0.0842994004487991,-1.45996785163879,46.1796875
0,0,6.277317,1595736040,3559270,1762,21441,408,16.8359279632568,2063.28125,129.010009765625,-6.80518817901611,-0.521635353565216,2.87138748168945,0.107512280344963,0.107512280344963,0.678060412406921,46.15234375
0,0,6.319311,1595776103,3559976,1843,21449,408,16.8359279632568,2063.59350585938,129.327392578125,-0.957129001617432,-1.34955203533173,9.80578708648682,-0.178372651338577,-0.178372651338577,-0.734260022640228,48.578125
0,0,6.371337,1595816165,3560669,1681,21457,404,21.5624866485596,2060.2734375,129.379272460938,1.32562363147736,-2.82353067398071,11.3228368759155,-0.04764748737216,-0.04764748737216,0.219911485910416,46.22265625
0,0,6.403346,1595856227,3561370,1775,21465,402,43.3984413146973,2059.765625,128.802490234375,-6.18783950805664,-2.90967226028442,18.2045955657959,0.394618928432465,0.394618928432465,1.39521622657776,46.1015625
0,0,6.44336,1595896285,3562051,1672,21473,389,87.4218673706055,2062.4609375,128.970336914063,7.65703201293945,-4.57986211776733,13.6917304992676,0.0378736443817616,0.0378736443817616,-0.332310706377029,46.62890625
0,0,6.520377,1595936349,3562738,1651,21481,383,98.359375,2062.9296875,129.061889648438,-0.741775035858154,-3.24945306777954,9.97328472137451,-0.0390953756868839,-0.0390953756868839,0.0867428630590439,46.1953125
0,0,6.527378,1595976414,3563388,1654,21488,373,118.750007629395,2062.734375,129.071044921875,-4.56550598144531,-7.31725215911865,9.53779125213623,-0.171042263507843,-0.171042263507843,-0.348193168640137,46.57421875
0,0,6.557366,1596016473,3564045,1562,21496,363,130.117172241211,2066.2890625,129.153442382813,-4.9435715675354,-2.44546461105347,11.2414808273315,0.169820547103882,0.169820547103882,0.244346097111702,47.2265625
0,0,6.606375,1596056535,3564673,1664,21503,353,130.195297241211,2066.640625,129.193115234375,-1.55533468723297,0.564706087112427,0.842273533344269,0.224798396229744,0.224798396229744,-0.14294245839119,47.88671875
0,0,6.639384,1596096594,3565312,1526,21510,363,130.195297241211,2066.640625,129.473876953125,-6.88175821304321,-1.88075852394104,8.76251697540283,-0.117286123335361,-0.117286123335361,0.228463590145111,47.66796875
0,0,6.677393,1596136656,3565951,1815,21517,344,133.7890625,2061.87475585938,129.525756835938,-10.4470634460449,0.583848714828491,12.2225379943848,0.0842994004487991,0.0842994004487991,-0.0794124826788902,48.77734375
0,0,6.717416,1596176716,3566631,1621,21525,363,125.117179870605,2062.0703125,129.006958007813,1.83768773078918,-5.48434925079346,8.51844882965088,-0.0940732434391975,-0.0940732434391975,0.157603219151497,46.125
0,0,6.795418,1596216777,3567327,1846,21532,373,123.945297241211,2065.625,129.4189453125,8.21695327758789,-4.22093963623047,17.4628200531006,0.123394772410393,0.123394772410393,-0.03176499158144,47.43359375
0,0,6.799435,1596256842,3568011,1659,21540,366,116.874992370605,2066.24975585938,129.483032226563,3.37388014793396,3.50787806510925,7.06361293792725,0.0842994004487991,0.0842994004487991,0.0549778714776039,46.17578125
0,0,6.83843,1596296907,3568704,1681,21547,364,92.7343673706055,2066.4453125,129.580688476563,-2.39760828018188,-6.47976350784302,9.30807971954346,-0.302989155054092,-0.302989155054092,0.772133648395538,46.13671875
0,0,6.891455,1596336962,3569355,1621,21554,345,96.4843597412109,2066.48413085938,129.595947265625,3.12502646446228,-3.2973096370697,12.5383920669556,0.239459171891212,0.239459171891212,-0.46547931432724,48.57421875
0,0,6.925452,1596377022,3570012,1579,21561,361,95.2343673706055,2066.6796875,129.611206054688,-2.58903384208679,0.870987474918365,6.16869688034058,0.255341678857803,0.255341678857803,0.164933606982231,47.48828125
0,0,6.959455,1596417084,3570639,1635,21568,353,95.3125076293945,2066.953125,129.6142578125,7.37946510314941,1.564906001091,3.73280358314514,0.0305432621389627,0.0305432621389627,-0.0794124826788902,46.828125
0,0,7.008931,1596457141,3571292,1571,21576,369,94.1015472412109,2065.7421875,129.6142578125,-2.89052987098694,-0.00957129057496786,9.09751129150391,0.116064392030239,0.116064392030239,0.0623082555830479,46.1328125
0,0,7.066926,1596497198,3571940,1829,21583,353,88.2812423706055,2057.73413085938,129.45556640625,-5.73798894882202,1.99082839488983,2.89052987098694,0.185703039169312,0.185703039169312,0.180816113948822,46.22265625
0,0,7.080933,1596537259,3572633,1654,21590,363,85.3124847412109,2065.54663085938,129.360961914063,-12.8351001739502,-5.95812845230103,14.9072847366333,-0.0708603635430336,-0.0708603635430336,0.204028993844986,48.38671875
0,0,7.118938,1596577326,3573319,1745,21598,368,85.5859222412109,2066.01538085938,129.400634765625,2.40717959403992,0.74656069278717,9.83450126647949,0.208915904164314,0.208915904164314,0.101403623819351,47.80859375
0,0,7.158953,1596617382,3573965,1568,21605,363,87.8124847412109,2066.2109375,129.397583007813,-2.75653171539307,5.29770946502686,6.5754771232605,0.100181899964809,0.100181899964809,0,48.43359375
0,0,7.203962,1596657443,3574646,1692,21612,380,92.7734375,2066.01538085938,129.4677734375,-5.03449869155884,-1.89032995700836,9.16929626464844,0,0,0.0781907513737679,47.765625
0,0,7.238968,1596697501,3575285,1569,21620,345,100.117179870605,2066.953125,129.6142578125,8.28873729705811,1.33040940761566,15.9266271591187,0.0232128798961639,0.0232128798961639,-0.0794124826788902,46.62890625
0,0,7.282979,1596737566,3575977,1669,21627,355,130.195297241211,2066.71875,129.65087890625,-15.5724906921387,3.431307554245,4.49850654602051,-0.155159771442413,-0.155159771442413,0.283441454172134,47.23046875
0,0,7.350009,1596777621,3576631,1699,21634,335,146.875,2066.6015625,129.629516601563,-2.40717959403992,-2.37846565246582,-2.22532486915588,-0.14782939851284,-0.14782939851284,0.0390953756868839,48.1875
0,0,7.361009,1596817680,3577327,1654,21641,353,137.226547241211,2059.41381835938,129.580688476563,-4.20658206939697,-2.99581384658813,12.7728872299194,-0.0390953756868839,-0.0390953756868839,0.0940732434391975,46.12890625
0,0,7.399018,1596857741,3578001,1794,21648,335,139.8046875,2064.53100585938,129.052734375,-6.51804876327515,-0.550349175930023,9.45643520355225,-0.101403623819351,-0.101403623819351,0.0232128798961639,48.44921875
0,0,7.440011,1596897798,3578667,1605,21655,341,158.90625,2065.9765625,129.364013671875,-4.27358102798462,1.93818628787994,12.1555395126343,-0.124616511166096,-0.124616511166096,0.0305432621389627,46.40625
0,0,7.481024,1596937858,3579341,1729,21661,329,167.304672241211,2065.9375,129.391479492188,4.6660041809082,-0.607776999473572,12.2656097412109,0.00733038270846009,0.00733038270846009,0.109955742955208,47.734375
0,0,7.524047,1596977918,3579985,1563,21668,320,167.421875,2066.75756835938,129.434204101563,-8.0685977935791,-1.66061890125275,12.600604057312,-0.03176499158144,-0.03176499158144,0.125838235020638,47.38671875
0,0,7.610135,1597017985,3580668,1701,21674,339,166.8359375,2063.0078125,129.257202148438,-0.267996162176132,-2.01954245567322,7.93938541412354,0.00733038270846009,0.00733038270846009,-0.056199599057436,48.0703125
0,0,7.649144,1597058057,3581316,1597,21681,304,168.164047241211,2063.125,129.217529296875,2.29232406616211,-0.933200895786285,11.4329071044922,0.0232128798961639,0.0232128798961639,0.133168622851372,46.25
0,0,7.686158,1597098115,3582016,1680,21687,301,164.374984741211,2062.8125,129.122924804688,-1.52183520793915,-0.981057286262512,6.23091077804565,-0.155159771442413,-0.155159771442413,-0.766025006771088,46.33984375
0,0,7.704157,1597138174,3582676,1714,21693,309,155.15625,2054.5703125,129.022216796875,-14.1750822067261,-6.7621169090271,4.65643310546875,0.100181899964809,0.100181899964809,0.370184332132339,48.09375
0,0,7.737169,1597178234,3583328,1549,21699,331,113.398429870605,2062.2265625,128.741455078125,-2.97667145729065,-2.71346092224121,14.2277240753174,0.107512280344963,0.107512280344963,-0.237015709280968,46.1328125
0,0,7.796182,1597218296,3583966,1736,21706,314,59.8046798706055,2062.1875,129.055786132813,2.84745907783508,-0.966700375080109,12.1794672012329,0.185703039169312,0.185703039169312,-0.134390354156494,46.2734375
0,0,7.815182,1597258359,3584604,1517,21712,311,18.0078144073486,2062.9296875,129.135131835938,1.41655099391937,-1.68933284282684,10.8729848861694,-0.00855211354792118,-0.00855211354792118,-0.257785111665726,46.35546875
0,0,7.849194,1597298417,3585260,1822,21719,594,3.71092557907104,2062.8125,129.196166992188,-6.95832824707031,4.73778867721558,14.031512260437,-0.0708603635430336,-0.0708603635430336,-0.205250710248947,46.125
0,0,7.879201,1597338482,3585919,1573,21726,333,0,2063.28125,129.226684570313,8.13081169128418,6.73340320587158,2.58424830436707,0.116064392030239,0.116064392030239,0.0146607654169202,46.125
0,0,7.919189,1597378553,3586631,1862,21732,343,0,2063.1640625,129.214477539063,3.31645226478577,-2.47896409034729,9.36550807952881,-0.117286123335361,-0.117286123335361,-0.38728854060173,48.14453125
0,0,7.959219,1597418613,3587324,1697,21739,330,2.46092677116394,2058.59375,129.16259765625,-9.42293548583984,-5.02971315383911,14.6871452331543,0.278554528951645,0.278554528951645,0.251676470041275,48.5703125
0,0,8.00021,1597458682,3588024,1702,21746,335,8.28123092651367,2062.2265625,128.82080078125,-4.96750020980835,0.468993246555328,3.66101884841919,0.0769690200686455,0.0769690200686455,-0.213802829384804,46.12109375
0,0,8.040218,1597498749,3588693,1716,21752,342,17.9687442779541,2062.85131835938,129.16259765625,-2.0386848449707,-0.373280346393585,4.6660041809082,-0.131946891546249,-0.131946891546249,-0.11117747426033,46.1796875
0,0,8.080228,1597538811,3589365,1654,21759,327,46.7968597412109,2062.734375,129.1748046875,4.37408018112183,-3.31645226478577,14.1559391021729,0.526565849781036,0.526565849781036,1.54426729679108,46.15625
0,0,8.119251,1597578866,3590023,1695,21766,332,106.71875,2062.7734375,129.244995117188,-2.96231436729431,-2.36889433860779,11.6004047393799,0.0696386322379112,0.0696386322379112,-0.0952949747443199,46.109375
0,0,8.16026,1597618925,3590665,1570,21772,299,136.796859741211,2063.0078125,129.35791015625,2.8761727809906,-0.894915699958801,7.86760091781616,0.216246291995049,0.216246291995049,0.125838235020638,46.16015625
0,0,8.200269,1597658983,3591314,1676,21778,308,127.187492370605,2063.55444335938,129.373168945313,4.35493755340576,3.22552514076233,14.3425788879395,0.130725160241127,0.130725160241127,-0.0244346093386412,48.32421875
0,0,8.240283,1597699046,3591948,1546,21785,321,140.390609741211,2063.4765625,129.507446289063,3.05802726745605,6.8721866607666,7.83410167694092,-0.0549778714776039,-0.0549778714776039,0.164933606982231,48.0234375
0,0,8.284289,1597739107,3592637,1766,21791,317,144.921875,2056.2890625,129.67529296875,7.83888673782349,5.44606447219849,10.6432752609253,-0.171042263507843,-0.171042263507843,-0.00855211354792118,47.0546875
0,0,8.320281,1597779171,3593301,1639,21797,290,145.6640625,2062.0703125,129.330444335938,-7.0588264465332,-9.88235759735107,6.67597532272339,-0.03176499158144,-0.03176499158144,0,47.69921875
0,0,8.36037,1597819233,3593997,1670,21802,279,149.84375,2062.6953125,129.18701171875,8.17388248443604,-1.19162571430206,6.22612428665161,0.216246291995049,0.216246291995049,-0.450818538665771,46.671875
0,0,8.402379,1597859293,3594651,1700,21809,311,146.249984741211,2062.421875,128.384399414063,-2.80438852310181,-3.79980254173279,1.5074782371521,0.0610865242779255,0.0610865242779255,0.274889349937439,46.453125
0,0,8.440368,1597899357,3595307,1554,21815,310,136.71875,2063.0078125,128.45458984375,4.35493755340576,2.3497519493103,8.73380279541016,0.0146607654169202,0.0146607654169202,0.173485726118088,46.93359375
0,0,8.480378,1597939414,3595940,1710,21821,290,128.437484741211,2063.32006835938,129.046630859375,3.2207396030426,-5.31206655502319,8.88215827941895,0,0,-0.0244346093386412,48.16796875
0,0,8.520402,1597979474,3596574,1511,21826,247,126.015602111816,2063.32006835938,129.04052734375,5.70927476882935,-1.27298164367676,11.1505537033081,0.0537561401724815,0.0537561401724815,0.109955742955208,47.6875
0,0,8.56041,1598019535,3597224,1857,21831,211,127.695289611816,2066.6796875,129.132080078125,2.98624277114868,4.46500730514526,12.4426774978638,-0.101403623819351,-0.101403623819351,0.0305432621389627,46.44140625
0,0,8.612422,1598059602,3597899,1604,21836,227,108.749984741211,2057.73413085938,129.010009765625,-3.34516596794128,4.46979236602783,4.75693130493164,-0.171042263507843,-0.171042263507843,0.173485726118088,46.27734375
0,0,8.640429,1598099676,3598590,1772,21841,242,91.5234375,2065.6640625,129.205322265625,-16.6923313140869,-0.464207619428635,9.57607650756836,-0.117286123335361,-0.117286123335361,0.204028993844986,46.56640625
0,0,8.68144,1598139734,3599255,1622,21846,238,83.2031097412109,2066.3671875,129.257202148438,-5.16849660873413,-2.05782747268677,13.203595161438,0.123394772410393,0.123394772410393,-0.316428184509277,46.15625
0,0,8.722452,1598179789,3599935,1646,21851,279,66.1328125,2065.9765625,129.217529296875,-7.89152908325195,-1.64626204967499,7.47517776489258,-0.101403623819351,-0.101403623819351,0.164933606982231,48.62890625
0,0,8.760442,1598219853,3600576,1600,21857,284,33.9452934265137,2066.24975585938,129.248046875,0.220139682292938,-2.80438852310181,12.4666051864624,-0.189368218183517,-0.189368218183517,-0.01588249579072,46.22265625
0,0,8.800465,1598259907,3601229,1573,21863,282,13.6328039169312,2066.640625,129.275512695313,-2.78045988082886,0.76570326089859,4.69950389862061,0.0146607654169202,0.0146607654169202,0.141720727086067,48.2890625
0,0,8.840479,1598299967,3601856,1669,21868,277,10.0390615463257,2066.9140625,129.3212890625,9.67657566070557,-1.31126689910889,-2.89531517028809,-0.171042263507843,-0.171042263507843,-0.12705996632576,46.3671875
0,0,8.880473,1598340024,3602530,1609,21874,278,5.19531965255737,2066.9140625,129.30908203125,-0.569491803646088,1.41655099391937,8.67158889770508,0.185703039169312,0.185703039169312,-0.237015709280968,46.3984375
0,0,8.920492,1598380083,3603208,1930,21879,271,3.98436188697815,2061.5234375,129.214477539063,7.15453958511353,-0.674776017665863,2.00997114181519,-0.0232128798961639,-0.0232128798961639,0.196698606014252,46.09375
0,0,8.960487,1598420145,3603918,1695,21885,292,2.26563215255737,2063.82788085938,128.451538085938,0.401994198560715,-4.96271419525146,13.1892385482788,-0.333532422780991,-0.333532422780991,0.204028993844986,47.17578125
0,0,9.00051,1598460210,3604627,1764,21891,303,6.28906488418579,2065.4296875,128.915405273438,-0.851844847202301,-1.95254337787628,11.4424772262573,0.139277264475822,0.139277264475822,0.00733038270846009,46.23046875
0,0,9.050506,1598500267,3605300,1651,21897,304,8.82813358306885,2066.40625,129.019165039063,-1.46919298171997,-1.93340075016022,9.95892810821533,0.0769690200686455,0.0769690200686455,-0.0244346093386412,46.6796875
0,0,9.082518,1598540332,3605989,1663,21903,302,8.7109203338623,2066.01538085938,129.3701171875,-2.44546461105347,1.40697968006134,-0.224925339221954,-0.124616511166096,-0.124616511166096,0.188146486878395,46.04296875
0,0,9.121522,1598580388,3606645,1683,21909,297,8.82813358306885,2066.4453125,129.495239257813,-4.64207601547241,-0.870987474918365,3.51744914054871,-0.205250710248947,-0.205250710248947,0.0305432621389627,48.03515625
0,0,9.162551,1598620446,3607297,1564,21915,305,8.67187976837158,2066.4453125,129.28466796875,2.44067931175232,-6.23091077804565,12.6341047286987,0.262672066688538,0.262672066688538,-0.01588249579072,47.15234375
0,0,9.201556,1598660504,3607930,1673,21921,297,13.6328039169312,2067.0703125,129.205322265625,5.68534660339355,0.296710014343262,11.0883407592773,0.123394772410393,0.123394772410393,-0.0635299831628799,48.3203125
0,0,9.241555,1598700562,3608552,1492,21927,304,17.1875057220459,2066.8359375,129.21142578125,1.84725904464722,0.947557806968689,7.83410167694092,0.0232128798961639,0.0232128798961639,0.0781907513737679,47.02734375
0,0,9.282576,1598740618,3609186,1814,21933,290,19.296854019165,2059.0625,129.449462890625,-4.8670015335083,5.3647084236145,5.57049083709717,0.364075690507889,0.364075690507889,-0.362853944301605,47.875
0,0,9.321583,1598780673,3609852,1582,21939,296,19.8437576293945,2061.5625,129.400634765625,-0.631705224514008,4.38365077972412,11.7583303451538,0.0305432621389627,0.0305432621389627,0.33841934800148,46.23046875
0,0,9.361597,1598820733,3610549,1895,21945,284,23.3593578338623,2065.8203125,129.91943359375,1.07198464870453,-1.48833572864532,19.6594295501709,-0.131946891546249,-0.131946891546249,0.0708603635430336,46.140625
0,0,9.401601,1598860799,3611248,1695,21951,308,35.1171798706055,2066.171875,130.059814453125,-8.16909599304199,-3.65144729614258,15.0652112960815,0.0378736443817616,0.0378736443817616,-0.0794124826788902,46.16796875
0,0,9.441615,1598900862,3611957,1729,21957,305,58.1249885559082,2066.24975585938,129.873657226563,-3.07716989517212,0.100498549640179,9.2793664932251,0.100181899964809,0.100181899964809,-0.663399636745453,46.08984375
0,0,9.492606,1598940921,3612636,1710,21963,298,56.9531326293945,2066.24975585938,129.937744140625,-1.48833572864532,-0.0382851622998714,11.1792678833008,-0.259006857872009,-0.259006857872009,-0.316428184509277,48.55078125
0,0,9.522619,1598980983,3613319,1669,21969,297,66.3671798706055,2066.8359375,130.123901367188,3.90987229347229,-1.04327070713043,11.0596265792847,0.0305432621389627,0.0305432621389627,0.456927180290222,48.578125
0,0,9.562622,1599021045,3613980,1707,21975,303,67.109375,2063.125,130.029296875,-3.5461630821228,-2.22532486915588,16.285551071167,-0.0623082555830479,-0.0623082555830479,0.125838235020638,46.11328125
0,0,9.602636,1599061109,3614620,1555,21981,297,69.1015396118164,2057.8515625,129.608154296875,3.8859441280365,-2.6751754283905,11.0644121170044,0.0146607654169202,0.0146607654169202,0.504574656486511,46.4296875
0,0,9.64264,1599101172,3615266,1677,21988,326,69.1796875,2062.57788085938,129.302978515625,0.631705224514008,1.41176533699036,9.99721336364746,0.0305432621389627,0.0305432621389627,-0.348193168640137,46.03515625
0,0,9.68265,1599141228,3615889,1514,21994,311,69.2577972412109,2062.5,129.592895507813,-2.24446773529053,0.521635353565216,7.38903617858887,0.0378736443817616,0.0378736443817616,0.322536826133728,46.23046875
0,0,9.731676,1599181295,3616559,1753,22000,335,64.6874923706055,2062.96875,129.644775390625,1.38305151462555,-4.57029151916504,16.7928276062012,-0.0781907513737679,-0.0781907513737679,0.0232128798961639,46.171875
0,0,9.763669,1599221357,3617207,1578,22006,308,63.4374923706055,2062.61694335938,129.638671875,-8.79123020172119,2.97667145729065,8.3030948638916,0.130725160241127,0.130725160241127,0.0390953756868839,46.22265625
0,0,9.836704,1599261425,3617932,1806,22013,335,67.0703048706055,2063.359375,129.702758789063,2.18225407600403,1.28733861446381,7.75274515151978,0.0842994004487991,0.0842994004487991,0.133168622851372,48.73046875
0,0,9.903715,1599301493,3618625,1755,22019,311,67.0312347412109,2062.96875,129.812622070313,-2.18704009056091,-0.344566464424133,13.1748809814453,-0.131946891546249,-0.131946891546249,0.929736852645874,46.18359375
0,0,9.960728,1599341558,3619328,1703,22025,315,59.296875,2058.67163085938,129.766845703125,-3.06759881973267,-3.18245410919189,11.5381908416748,0.162490159273148,0.162490159273148,-2.09160256385803,46.1796875
0,0,10.015745,1599381621,3620014,1791,22032,317,55.0390472412109,2062.265625,129.339599609375,4.4793643951416,2.24925327301025,8.60458946228027,-0.0232128798961639,-0.0232128798961639,1.10322260856628,46.27734375
0,0,10.082742,1599421683,3620688,1644,22038,319,50.4296722412109,2062.3046875,129.598999023438,-3.45523595809937,2.49810695648193,10.1120691299438,0.0378736443817616,0.0378736443817616,0.764803290367126,46.2578125
0,0,10.162761,1599461748,3621360,1669,22045,319,50.4296722412109,2063.28125,129.647827148438,-0.0239282269030809,2.15354061126709,10.126425743103,-0.0549778714776039,-0.0549778714776039,0.480140089988708,46.48046875
0,0,10.198772,1599501805,3621993,1549,22051,312,51.6796722412109,2062.61694335938,129.629516601563,-3.56530570983887,1.85683047771454,8.54716205596924,-0.0708603635430336,-0.0708603635430336,-0.03176499158144,46.1875
0,0,10.21777,1599541862,3622647,1590,22057,320,56.4062309265137,2062.4609375,129.58984375,6.81475877761841,-1.27298164367676,13.4141635894775,-0.0781907513737679,-0.0781907513737679,0,46.7109375
1,0,10.23579,1599581918,3623254,1504,22063,292,64.609375,2062.6953125,129.617309570313,-1.64147627353668,-2.55074906349182,8.54716205596924,-0.0232128798961639,-0.0232128798961639,0.0464257597923279,47.09765625
1,0,10.277804,1599621983,3623930,1634,22069,326,74.21875,2063.0078125,129.669189453125,3.27816700935364,2.98145723342896,3.12024068832397,-0.201585531234741,-0.201585531234741,0.409279704093933,46.16796875
1,0,10.3298,1599662047,3624551,1564,22075,298,77.4609451293945,2055.3125,129.840087890625,1.45483613014221,-1.62711942195892,18.0131702423096,-0.117286123335361,-0.117286123335361,-0.04764748737216,47.02734375
1,0,10.352309,1599702109,3625279,1727,22082,313,107.734352111816,2062.265625,129.583740234375,-6.77168846130371,1.11026978492737,6.65683269500732,-0.194255143404007,-0.194255143404007,-0.229685336351395,46.1171875
1,0,10.386362,1599742167,3625967,1805,22088,308,112.734375,2062.1484375,129.541015625,2.60817646980286,-0.191425815224648,6.34576559066772,-0.783129215240479,-0.783129215240479,2.0891592502594,47.1953125
1,0,10.42337,1599782234,3626646,1647,22094,310,117.578117370605,2063.046875,129.592895507813,-5.25942420959473,0.622133910655975,12.3278226852417,-0.0623082555830479,-0.0623082555830479,1.72752690315247,46.93359375
1,0,10.443354,1599822297,3627327,1745,22100,299,118.789047241211,2062.6953125,129.574584960938,-0.392422914505005,5.58484792709351,12.3613224029541,0,0,-0.615752160549164,46.37109375
1,1,10.539396,1599860156,3627949,1606,22106,291,112.773422241211,2062.1875,129.50439453125,-10.1838531494141,-0.68434727191925,8.52323436737061,0.0146607654169202,0.0146607654169202,-0.583987176418304,48.51953125
1,1,10.583386,1600040001,3630874,1772,22134,302,110.039054870605,2052.6953125,129.04052734375,-5.43649244308472,1.7850456237793,10.5714912414551,-0.140499010682106,-0.140499010682106,-0.213802829384804,51.171875
1,1,10.622398,1600081894,3631549,1556,22140,297,124.492172241211,2052.9296875,129.025268554688,-7.59481906890869,1.6223338842392,2.94317197799683,-0.00855211354792118,-0.00855211354792118,-0.0794124826788902,51.7421875
1,1,10.666939,1600123255,3632273,1778,22146,303,157.7734375,2052.85131835938,129.135131835938,-12.1890392303467,6.18783950805664,2.04347062110901,-0.16371189057827,-0.16371189057827,-0.237015709280968,52.2890625
1,1,10.706997,1600165810,3632986,1687,22152,264,203.0078125,2052.6953125,129.302978515625,-1.47397875785828,-6.29312419891357,4.57507705688477,-0.201585531234741,-0.201585531234741,-0.0952949747443199,53.09375
1,1,10.749002,1600208289,3633706,1621,22157,239,292.812469482422,2053.0078125,129.302978515625,-1.33519506454468,-8.9108715057373,5.04406976699829,0.123394772410393,0.123394772410393,0.228463590145111,53.578125
1,1,10.802016,1600248710,3634364,1724,22161,0,349.687469482422,2052.734375,129.150390625,-2.7948169708252,-4.67078971862793,7.25982427597046,0.0305432621389627,0.0305432621389627,-0.540004909038544,54.01171875
1,1,10.830005,1600288724,3635010,1564,22165,254,372.343719482422,2052.6171875,128.9794921875,3.44087910652161,-3.82373070716858,10.1120691299438,-0.263893783092499,-0.263893783092499,-0.252898216247559,54.49609375
1,1,10.87203,1600330685,3635685,1652,22170,253,368.828125,2052.734375,128.985595703125,0.57906311750412,-0.918843865394592,6.34576559066772,-0.171042263507843,-0.171042263507843,-0.229685336351395,54.9140625
1,1,10.915028,1600373336,3636332,1477,22174,158,368.828125,2052.6171875,129.00390625,0.167497590184212,-1.09591269493103,6.30269479751587,-0.178372651338577,-0.178372651338577,-0.244346097111702,55.3828125
1,1,10.956053,1600415502,3637038,1720,22176,83,365.234375,2052.7734375,129.006958007813,0.153140649199486,-4.85742998123169,6.97268486022949,-0.186924755573273,-0.186924755573273,-0.04764748737216,55.80078125
1,1,11.002064,1600461500,3637789,1674,22178,0,361.601531982422,2052.65625,128.952026367188,-4.93878602981567,-14.7062883377075,12.6053895950317,-0.186924755573273,-0.186924755573273,-0.11117747426033,56.34765625
1,1,11.045074,1600504702,3638585,1765,22179,119,358.007781982422,2052.81225585938,128.970336914063,6.4175500869751,-1.09112703800201,11.030912399292,-0.117286123335361,-0.117286123335361,0.259006857872009,56.67578125
1,1,11.08556,1600545029,3639310,1839,22181,187,313.125,2053.0078125,129.00390625,2.33060932159424,-2.45025038719177,9.78185844421387,-0.0855211317539215,-0.0855211317539215,0.109955742955208,57.02734375
1,1,11.133553,1600586772,3640048,1737,22182,138,182.929672241211,2052.57788085938,129.031372070313,-0.866201817989349,-8.41316413879395,9.54257678985596,0.0842994004487991,0.0842994004487991,-0.118507854640484,57.3984375
1,1,11.16956,1600629187,3640811,1777,22184,0,96.953125,2053.046875,129.122924804688,2.70388960838318,0.205782756209373,2.18704009056091,0.153938040137291,0.153938040137291,-0.0867428630590439,57.625
1,1,11.212588,1600671399,3641559,1825,22188,202,66.953125,2052.5390625,129.153442382813,-3.35952305793762,-0.320638209581375,5.80977344512939,-0.00855211354792118,-0.00855211354792118,-0.0867428630590439,57.98828125
1,1,11.252592,1600711719,3642260,1709,22192,0,56.4062309265137,2052.7734375,129.278564453125,-3.66101884841919,2.89052987098694,10.1072835922241,-0.0549778714776039,-0.0549778714776039,0,58.30078125
1,1,11.294587,1600752598,3642968,1724,22195,0,52.8906288146973,2053.125,129.312133789063,1.85683047771454,3.8859441280365,7.81017351150513,0.252898216247559,0.252898216247559,-0.961501896381378,58.7265625
1,1,11.3466,1600798646,3643732,1651,22198,183,41.9921875,2052.85131835938,129.266357421875,-0.918843865394592,-4.76171684265137,11.3898363113403,0.526565849781036,0.526565849781036,0,59.01953125
0,1,11.382627,1600841289,3644450,1627,22201,165,27.6562576293945,2053.125,129.251098632813,-8.70508861541748,-1.90947258472443,8.46102046966553,0.364075690507889,0.364075690507889,-1.63834059238434,59.25390625
0,1,11.424616,1600883723,3645147,1728,22205,0,17.0312519073486,2052.890625,129.28466796875,-6.55154895782471,-3.07716989517212,5.7858452796936,0.867428660392761,0.867428660392761,-1.04824471473694,61.29296875
0,1,11.465641,1600925258,3645817,1566,22209,0,14.5702953338623,2052.734375,129.296875,0.157926306128502,-2.88574409484863,12.4666051864624,-0.449596792459488,-0.449596792459488,-1.54426729679108,59.80078125
0,1,11.508634,1600967825,3646510,1654,22212,0,14.5312547683716,2052.7734375,129.299926757813,-3.95294308662415,-0.531206607818604,10.0546407699585,-0.03176499158144,-0.03176499158144,0.0549778714776039,60.11328125
0,1,11.550665,1601009337,3647148,1503,22216,0,14.3359298706055,2049.92163085938,129.144287109375,-5.40777921676636,-1.35433769226074,9.15972423553467,-0.01588249579072,-0.01588249579072,0.535117924213409,60.296875
0,1,11.593655,1601052163,3647881,1730,22219,188,15.4296760559082,2049.92163085938,129.08935546875,2.02911353111267,-2.0386848449707,9.14058303833008,0.0610865242779255,0.0610865242779255,-0.426383942365646,60.578125
0,1,11.635666,1601094648,3648580,1676,22223,193,15.5468578338623,2049.8046875,129.122924804688,6.5754771232605,-6.91047191619873,12.9978122711182,0.0305432621389627,0.0305432621389627,0.0940732434391975,60.65625
0,1,11.678881,1601138174,3649368,1735,22227,0,15.2343807220459,2048.984375,129.0283203125,-4.48414993286133,-3.21595358848572,8.4562349319458,0.0305432621389627,0.0305432621389627,-0.257785111665726,61.0078125
0,1,11.722891,1601181811,3650144,1825,22231,0,16.6406326293945,2049.5703125,128.99169921875,11.0548410415649,1.02891373634338,2.33539485931396,0.0928515195846558,0.0928515195846558,-0.0867428630590439,61.140625
0,1,11.765906,1601224339,3650890,1731,22234,0,17.8124904632568,2049.3359375,129.006958007813,-11.4329071044922,-5.98205661773682,9.87278652191162,0.178372651338577,0.178372651338577,-0.205250710248947,61.43359375
0,1,11.80791,1601266742,3651644,1751,22238,0,19.0234184265137,2049.4921875,129.01611328125,-6.16391134262085,0.847059190273285,6.47019243240356,0.0842994004487991,0.0842994004487991,0.259006857872009,61.61328125
0,1,11.849919,1601307172,3652351,1800,22242,0,15.4296760559082,2049.9609375,129.01611328125,7.07796955108643,-0.334995180368423,6.7956166267395,0.100181899964809,0.100181899964809,-1.26815629005432,61.86328125
0,1,11.896935,1601349577,3653083,1699,22245,0,11.7578210830688,2049.453125,128.99169921875,-2.5986053943634,3.67537546157837,3.51744914054871,-0.117286123335361,-0.117286123335361,0.960280179977417,62.0078125
0,1,11.931945,1601390274,3653785,1714,22249,0,11.914044380188,2049.7265625,128.9794921875,-0.253639191389084,4.76650285720825,5.38863611221313,-0.186924755573273,-0.186924755573273,0.24312436580658,62.1640625
0,1,11.97297,1601432460,3654484,1642,22252,0,9.49218845367432,2049.64819335938,128.982543945313,0.669990360736847,0.301495641469955,8.3030948638916,-0.411723166704178,-0.411723166704178,1.05435335636139,62.38671875
0,1,12.017069,1601476544,3655225,1622,22256,0,10.6250047683716,2049.140625,128.952026367188,-5.3982081413269,-0.0526420958340168,7.30289459228516,0.248011291027069,0.248011291027069,1.52716302871704,62.60546875
0,1,12.059078,1601518321,3655907,1714,22260,0,10.7031164169312,2049.5703125,128.961181640625,0.842273533344269,-0.5599205493927,7.12582635879517,-0.0623082555830479,-0.0623082555830479,-0.552222192287445,62.71875
0,1,12.100083,1601558978,3656564,1567,22263,191,9.53122997283936,2049.609375,128.970336914063,10.9160575866699,0.722632467746735,9.04487037658691,-0.108734011650085,-0.108734011650085,-0.189368218183517,62.86328125
0,1,12.141077,1601599929,3657228,1705,22267,0,10.6640453338623,2049.7265625,129.058837890625,-5.45085000991821,-5.65663242340088,10.451849937439,-0.101403623819351,-0.101403623819351,-0.197920337319374,62.91796875
0,1,12.182593,1601642219,3657896,1535,22272,214,10.7031164169312,2049.64819335938,128.982543945313,-0.363709032535553,2.43110799789429,8.89651489257813,-0.0708603635430336,-0.0708603635430336,0.133168622851372,63.17578125
0,1,12.225605,1601684526,3658621,1768,22277,228,11.8750038146973,2049.375,128.912353515625,3.98165678977966,0.167497590184212,8.34138011932373,-0.00855211354792118,-0.00855211354792118,-0.118507854640484,63.3125
0,1,12.265615,1601724974,3659297,1662,22281,231,14.2187480926514,2049.5703125,129.232788085938,1.62711942195892,-1.22512519359589,8.37009334564209,0.0610865242779255,0.0610865242779255,-0.291993588209152,63.3359375
0,1,12.307623,1601765672,3660018,1722,22286,245,14.2578182220459,2049.64819335938,129.251098632813,-5.15413951873779,-1.67019021511078,4.81914520263672,0.0537561401724815,0.0537561401724815,-0.237015709280968,63.6015625
0,1,12.353635,1601812388,3660823,1785,22292,260,14.2187480926514,2049.21875,129.144287109375,1.29212415218353,-2.28753852844238,9.44207859039307,0.0378736443817616,0.0378736443817616,-0.11117747426033,63.73046875
0,1,12.397645,1601855503,3661549,1647,22297,249,14.2187480926514,2049.17944335938,128.91845703125,-9.88235759735107,1.84247350692749,3.0197422504425,0.0305432621389627,0.0305432621389627,-0.0635299831628799,63.84375
0,1,12.441673,1601897946,3662275,1677,22303,258,16.6406326293945,2049.0625,128.915405273438,7.03011274337769,-0.832702338695526,9.64786052703857,-0.713490605354309,-0.713490605354309,-8.36763191223145,64.00390625
0,1,12.481684,1601940011,3662968,1673,22308,260,17.8124904632568,2049.3359375,128.91845703125,1.00019991397858,-3.25902438163757,12.9068851470947,-0.0390953756868839,-0.0390953756868839,-2.40070033073425,64.16796875
0,1,12.523691,1601982693,3663697,1647,22314,253,30.8593807220459,2049.2578125,128.909301757813,9.09751129150391,-3.03409910202026,7.66660356521606,0.0464257597923279,0.0464257597923279,1.01647973060608,64.203125
0,1,12.564703,1602022859,3664369,1760,22319,257,44.4531135559082,2052.81225585938,129.1748046875,0.803988397121429,-0.760917603969574,7.6043906211853,0.0696386322379112,0.0696386322379112,-0.378736436367035,64.32421875
0,1,12.603711,1602063250,3665035,1603,22325,263,64.5703048706055,2052.6953125,129.180908203125,2.76131725311279,0.569491803646088,10.1312122344971,-0.04764748737216,-0.04764748737216,-0.189368218183517,64.515625
0,1,12.666728,1602105881,3665743,1672,22330,244,93.3593826293945,2052.7734375,129.141235351563,-4.59900522232056,1.38783717155457,4.59900522232056,-0.140499010682106,-0.140499010682106,0.274889349937439,64.59765625
0,1,12.748744,1602154945,3666516,1576,22336,268,100.468757629395,2051.9921875,129.0771484375,5.02014207839966,-0.904487013816833,12.5814619064331,-0.0390953756868839,-0.0390953756868839,0.384845077991486,64.640625
0,1,12.803755,1602197775,3667225,1586,22341,254,106.484352111816,2052.734375,129.129028320313,10.7485589981079,-4.51764869689941,8.22652435302734,-0.140499010682106,-0.140499010682106,-0.189368218183517,64.75
0,1,12.90878,1602240391,3667917,1808,22346,240,101.601539611816,2052.6953125,129.034423828125,-5.20678234100342,-3.06759881973267,2.38803720474243,0.0305432621389627,0.0305432621389627,-0.221133202314377,64.9296875
0,1,12.972051,1602282541,3668646,1664,22351,215,99.3359375,2052.890625,128.915405273438,-2.344966173172,-3.5461630821228,7.40817928314209,0.0232128798961639,0.0232128798961639,-0.346971452236176,64.98828125
0,1,13.010058,1602324017,3669367,1760,22356,235,95.859375,2053.1640625,129.147338867188,-1.61276257038116,3.34995174407959,6.63769006729126,-0.0232128798961639,-0.0232128798961639,-0.105068817734718,65.04296875
0,1,13.062072,1602366712,3670079,1650,22361,253,90.8984222412109,2052.65625,129.248046875,4.18743944168091,-5.46042108535767,8.41316413879395,-0.178372651338577,-0.178372651338577,-0.134390354156494,65.17578125
0,1,13.119085,1602407690,3670781,1654,22367,268,89.6093521118164,2052.34350585938,129.000854492188,-11.1266250610352,-4.62293338775635,4.88614416122437,0.273667633533478,0.273667633533478,-0.0635299831628799,65.2265625
0,1,13.171094,1602450290,3671485,1730,22372,255,93.4374923706055,2052.890625,128.656005859375,7.07796955108643,0.0957129076123238,6.85304403305054,0.116064392030239,0.116064392030239,-0.205250710248947,65.31640625
0,1,13.211105,1602494388,3672215,1610,22378,255,98.1640548706055,2052.6171875,128.692626953125,-7.20239591598511,1.94775760173798,10.0977115631104,-0.0232128798961639,-0.0232128798961639,-0.0794124826788902,65.453125
0,1,13.262117,1602535714,3672897,1672,22383,209,89.6484222412109,2052.890625,128.717041015625,7.22153902053833,1.25383913516998,8.71944522857666,-0.117286123335361,-0.117286123335361,-0.118507854640484,66.53125
0,1,13.28112,1602577237,3673549,1542,22387,232,82.578125,2052.890625,128.631591796875,-2.99102830886841,-0.0765703245997429,1.96211457252502,0.0378736443817616,0.0378736443817616,-0.362853944301605,65.62109375
0,1,13.299123,1602619531,3674255,1664,22393,242,78.9062347412109,2052.6953125,128.536987304688,1.96690022945404,-4.88135862350464,10.0785694122314,-0.194255143404007,-0.194255143404007,-0.237015709280968,65.73046875
0,1,13.337132,1602661851,3674933,1610,22397,227,69.3749771118164,2052.9296875,128.530883789063,1.89032995700836,-3.25902438163757,19.4153633117676,-0.0232128798961639,-0.0232128798961639,-0.11117747426033,65.765625
0,1,13.37514,1602704281,3675696,1722,22402,215,58.7109336853027,2052.890625,128.482055664063,6.13041162490845,0.468993246555328,4.49850654602051,0.0537561401724815,0.0537561401724815,-0.141720727086067,68.0859375
0,1,13.393145,1602744310,3676392,1817,22407,225,50.4687423706055,2052.57788085938,128.38134765625,-2.22053956985474,-4.07258415222168,13.0743837356567,-0.0390953756868839,-0.0390953756868839,-0.03176499158144,65.86328125
0,1,13.433168,1602784514,3677080,1673,22411,216,49.7656173706055,2052.6171875,128.240966796875,4.64686155319214,-0.622133910655975,7.66660356521606,-0.0390953756868839,-0.0390953756868839,-0.11117747426033,65.9296875
0,1,13.469189,1602831258,3677875,1669,22417,253,52.734375,2052.65625,128.225708007813,0.870987474918365,-5.23071050643921,11.1074838638306,-0.0549778714776039,-0.0549778714776039,-0.12705996632576,66.0234375
0,1,13.488194,1602874284,3678585,1661,22422,265,52.8515586853027,2052.85131835938,128.106689453125,4.79043102264404,-3.79023122787476,7.31725215911865,0.0610865242779255,0.0610865242779255,0.0623082555830479,66.06640625
0,1,13.506198,1602916591,3679285,1611,22428,286,51.6406288146973,2052.7734375,128.0029296875,-0.468993246555328,0.105284191668034,7.8149585723877,0.116064392030239,0.116064392030239,0.00733038270846009,66.203125
0,1,13.545205,1602956848,3679939,1706,22434,291,50.4296722412109,2052.3828125,127.99072265625,-3.77108860015869,0.00478564528748393,7.41296434402466,0.107512280344963,0.107512280344963,-0.150272846221924,66.22265625
0,1,13.583215,1602999022,3680620,1580,22440,288,49.3359260559082,2052.81225585938,128.060913085938,0.89012998342514,-0.564706087112427,11.6817598342896,-0.16371189057827,-0.16371189057827,-0.331088960170746,66.2421875
0,1,13.601217,1603039706,3681305,1793,22445,277,47.6171684265137,2049.53125,128.012084960938,-1.45962178707123,-1.47397875785828,16.1276245117188,0.0232128798961639,0.0232128798961639,-0.102625355124474,66.6640625
0,1,13.621222,1603080027,3681986,1660,22451,298,52.5781211853027,2049.88256835938,128.021240234375,-1.12462663650513,0.186640173196793,4.77607440948486,-0.03176499158144,-0.03176499158144,-0.056199599057436,66.32421875
0,1,13.664236,1603122500,3682729,1707,22458,307,52.4609375,2049.609375,128.021240234375,3.67058992385864,-6.16391134262085,9.33200836181641,0.00733038270846009,0.00733038270846009,-0.323758572340012,66.3359375
0,1,13.711243,1603169770,3683533,1791,22465,295,50.1171951293945,2049.375,127.978515625,-2.20618271827698,0.68434727191925,6.34576559066772,0.100181899964809,0.100181899964809,0.133168622851372,66.46484375
0,1,13.757253,1603213213,3684266,1641,22471,299,52.3437576293945,2048.5546875,127.914428710938,-0.0478564538061619,0.110069841146469,9.74835968017578,0.0378736443817616,0.0378736443817616,-0.166155353188515,66.58203125
0,1,13.806042,1603264858,3685142,1654,22479,291,52.3827972412109,2049.296875,127.963256835938,-0.263210475444794,-8.35573768615723,14.6297178268433,0.289550095796585,0.289550095796585,0.0232128798961639,66.75390625
0,1,13.863038,1603307770,3685846,1720,22485,315,51.1718673706055,2049.4921875,127.859497070313,-3.02452802658081,-2.93360066413879,3.45045018196106,0.208915904164314,0.208915904164314,0.172263994812965,66.7265625
0,1,13.890061,1603349561,3686556,1637,22492,312,47.6171684265137,2048.984375,127.566528320313,1.45005059242249,-3.24466776847839,7.08275508880615,0.294437050819397,0.294437050819397,0.0940732434391975,66.83203125
0,1,13.933052,1603391519,3687261,1733,22499,324,45.2343826293945,2049.3359375,127.627563476563,1.70847535133362,1.84725904464722,11.413763999939,0.224798396229744,0.224798396229744,-0.134390354156494,66.8125
0,1,13.974061,1603433083,3687935,1586,22505,305,46.4453086853027,2049.609375,127.789306640625,-8.32223701477051,2.15354061126709,3.16331148147583,0.123394772410393,0.123394772410393,-0.102625355124474,66.83203125
0,1,14.016071,1603475587,3688661,1702,22512,306,44.0624961853027,2049.3359375,127.691650390625,8.29352378845215,-5.74756002426147,9.81057357788086,0.139277264475822,0.139277264475822,0.00733038270846009,66.9375
0,1,14.05808,1603516899,3689340,1656,22518,316,30.9374923706055,2049.5703125,127.55126953125,2.66081881523132,-7.36510801315308,15.2327098846436,0.193033412098885,0.193033412098885,-0.00855211354792118,66.9375
0,1,14.10009,1603559205,3690102,1735,22525,316,8.32030200958252,2049.5703125,127.557373046875,2.61774802207947,-4.62771892547607,8.81037330627441,0.348193168640137,0.348193168640137,0.549778699874878,66.984375
0,1,14.142104,1603601085,3690839,1831,22532,342,0,2049.92163085938,127.536010742188,0.435493737459183,2.91445827484131,2.90010118484497,0.178372651338577,0.178372651338577,-0.205250710248947,67.03125
0,1,14.192112,1603643913,3691580,1696,22539,304,0,2049.4921875,127.42919921875,1.25383913516998,1.9812570810318,5.46520709991455,0.0610865242779255,0.0610865242779255,0.50335294008255,67.08203125
0,1,14.226138,1603685589,3692313,1724,22545,298,0,2049.375,127.005004882813,-11.1361970901489,-5.33120918273926,9.97807121276855,0.0378736443817616,0.0378736443817616,-0.394618928432465,67.19140625
0,1,14.267147,1603726386,3693011,1737,22551,274,0,2049.453125,126.138305664063,-4.45064973831177,-1.21555399894714,7.62831878662109,-0.01588249579072,-0.01588249579072,0.156381502747536,67.19921875
0,1,14.310157,1603768734,3693740,1675,22557,291,0,2049.64819335938,125.326538085938,3.66580438613892,-4.57029151916504,10.0354976654053,0.139277264475822,0.139277264475822,0.109955742955208,67.69921875
0,1,14.352166,1603811086,3694460,1740,22563,299,0,2049.609375,125.146484375,1.2825528383255,-0.808774054050446,11.8779726028442,0.0305432621389627,0.0305432621389627,0.133168622851372,67.24609375
0,1,14.392175,1603851128,3695119,1618,22569,290,0,2049.4921875,124.252319335938,-0.64127641916275,4.60857629776001,3.12981200218201,0.116064392030239,0.116064392030239,0.00733038270846009,67.2890625
0,1,14.432185,1603891164,3695793,1673,22575,297,0,2049.5703125,121.774291992188,0.521635353565216,0.799202740192413,5.54177713394165,0.0928515195846558,0.0928515195846558,0.251676470041275,67.296875
0,1,14.474194,1603932736,3696459,1586,22581,301,0,2049.5703125,119.760131835938,-1.04805624485016,-1.04805624485016,10.3369932174683,0.153938040137291,0.153938040137291,0.0146607654169202,67.296875
0,1,14.522232,1603973558,3697138,1606,22588,306,0,2049.453125,118.814086914063,2.90010118484497,-5.8624153137207,11.11705493927,0.185703039169312,0.185703039169312,-0.197920337319374,67.390625
0,1,14.556316,1604015644,3697810,1679,22594,318,0,2052.5390625,118.267822265625,2.95752882957458,-3.63230466842651,7.37946510314941,0.201585531234741,0.201585531234741,0.0696386322379112,67.3359375
0,1,14.604327,1604063548,3698644,1663,22602,334,0,2052.57788085938,117.861938476563,-2.30189538002014,-0.349352121353149,14.1320095062256,0.185703039169312,0.185703039169312,-0.157603219151497,67.51953125
0,1,14.64932,1604105635,3699385,1801,22609,311,0,2052.96875,117.840576171875,-9.45643520355225,5.88634395599365,10.5044918060303,0.123394772410393,0.123394772410393,0.196698606014252,67.453125
0,1,14.715347,1604148761,3700129,1719,22615,293,0,2052.96875,117.172241210938,0.248853549361229,-0.277567446231842,9.89192867279053,0.0696386322379112,0.0696386322379112,-0.040317103266716,67.5703125
0,1,14.74234,1604189755,3700849,1700,22621,294,0,2053.046875,116.397094726563,8.22173881530762,4.25922441482544,8.8917293548584,0.0464257597923279,0.0464257597923279,0.125838235020638,67.58984375
0,1,14.783349,1604232021,3701572,1778,22627,302,0,2053.0078125,116.116333007813,-3.61794805526733,-5.77148818969727,17.8552417755127,0.0146607654169202,0.0146607654169202,-0.0867428630590439,67.67578125
0,1,14.822356,1604274169,3702275,1629,22634,298,0,2052.81225585938,115.8203125,-5.75713157653809,-0.961914658546448,9.68136024475098,0.100181899964809,0.100181899964809,0.133168622851372,67.65234375
0,1,14.861364,1604315811,3702982,1703,22640,290,0,2052.5390625,115.548706054688,8.94437122344971,0.780060172080994,7.97767066955566,0.224798396229744,0.224798396229744,0.21135938167572,67.71484375
0,1,14.898376,1604356906,3703652,1617,22646,283,0,2052.6171875,115.032958984375,0.976271688938141,-3.57009124755859,10.3034954071045,0.123394772410393,0.123394772410393,0.0146607654169202,67.796875
0,1,14.943385,1604400083,3704391,1654,22652,272,0,2052.65625,113.064575195313,-6.26440954208374,-1.12941217422485,1.47876441478729,0.169820547103882,0.169820547103882,0.0623082555830479,67.765625
0,1,14.983392,1604442087,3705089,1778,22657,275,0,2052.81225585938,111.187744140625,1.59840548038483,-3.3308093547821,6.83390140533447,0.255341678857803,0.255341678857803,0.0940732434391975,67.79296875
0,1,15.028406,1604484529,3705818,1664,22663,268,0,2052.6953125,109.744262695313,-4.08215570449829,-1.90468680858612,14.6823596954346,0.216246291995049,0.216246291995049,0.0464257597923279,67.765625
0,1,15.067414,1604524797,3706549,1986,22668,235,0,2052.10913085938,109.307861328125,5.25942420959473,4.17308282852173,14.0171556472778,0.0842994004487991,0.0842994004487991,0.125838235020638,67.83984375
0,1,15.121926,1604567304,3707337,1805,22673,236,0,2052.6953125,109.04541015625,0.234496623277664,1.96211457252502,12.299108505249,-0.365297436714172,-0.365297436714172,-0.35430184006691,69.68359375
0,1,15.153935,1604609074,3708205,2064,22678,239,0,2052.85131835938,109.033203125,14.0697965621948,-0.957129001617432,5.42692184448242,-0.326202034950256,-0.326202034950256,-1.11055302619934,67.91015625
0,1,15.192944,1604651801,3709107,2148,22683,0,0,2052.6953125,109.036254882813,2.47896409034729,-2.4885356426239,8.39402198791504,-0.263893783092499,-0.263893783092499,-0.182037845253944,67.87890625
0,1,15.235954,1604694038,3710028,2306,22687,204,0,2052.6953125,108.941650390625,-10.9878416061401,3.35952305793762,16.8646144866943,0.208915904164314,0.208915904164314,0.101403623819351,67.9765625
0,1,15.281962,1604740367,3711076,2259,22692,211,0,2052.65625,108.956909179688,-9.8536434173584,-8.43230724334717,8.36530780792236,0.294437050819397,0.294437050819397,-0.370184332132339,67.96484375
0,1,15.340977,1604782905,3712031,2213,22696,0,0,2052.5,108.956909179688,7.21675300598145,0.334995180368423,12.3038949966431,0.0378736443817616,0.0378736443817616,0.0390953756868839,68
0,1,15.368983,1604825446,3713008,2309,22700,0,0,2052.6171875,108.901977539063,-0.698704242706299,-2.7661030292511,17.419750213623,0.201585531234741,0.201585531234741,-0.212581098079681,68.0703125
0,1,15.413058,1604867392,3713973,2296,22704,0,0,2053.046875,108.69140625,-3.57487726211548,-1.18684005737305,-1.47397875785828,0.0464257597923279,0.0464257597923279,0.0390953756868839,68.0625
0,1,15.450066,1604907588,3714901,2326,22707,0,0,2052.7734375,108.5205078125,3.72801780700684,7.88674354553223,10.7820587158203,0.379958152770996,0.379958152770996,0.195476874709129,68.02734375
0,1,15.494076,1604950163,3715871,2286,22711,0,0,2052.9296875,108.59375,3.52702045440674,-3.57966279983521,3.7471604347229,0.317649930715561,0.317649930715561,-0.0952949747443199,68.16796875
0,1,15.557409,1604993337,3716859,2252,22714,0,0,2052.7734375,108.184814453125,-5.09671258926392,-8.16431140899658,13.4141635894775,0.0305432621389627,0.0305432621389627,0.22724187374115,68.20703125
0,1,15.579005,1605035577,3717847,2344,22717,0,0,2049.6875,106.9580078125,3.90508675575256,2.01954245567322,16.6205444335938,0.178372651338577,0.178372651338577,-0.291993588209152,68.21875
0,1,15.622033,1605081136,3718923,2377,22720,140,0,2049.53125,106.381225585938,-9.4995059967041,2.11046981811523,0.277567446231842,0.208915904164314,0.208915904164314,0.0623082555830479,68.28125
0,1,15.664028,1605121490,3719885,2393,22723,0,0,2049.453125,105.520629882813,1.2299108505249,-14.8881425857544,27.9625263214111,-0.124616511166096,-0.124616511166096,0.0464257597923279,68.25
0,1,15.703047,1605161950,3720866,2528,22726,0,0,2049.609375,105.160522460938,12.3326082229614,8.20259571075439,14.1942234039307,0.0928515195846558,0.0928515195846558,0.384845077991486,68.2578125
0,1,15.763322,1605202583,3721876,2488,22728,156,0,2049.375,104.934692382813,-3.56051993370056,-0.492921471595764,-19.6020030975342,0.526565849781036,0.526565849781036,-0.472809702157974,68.3125
0,1,15.792327,1605245046,3722956,2505,22731,0,0,2049.53125,104.3212890625,-19.6929302215576,-7.08275508880615,18.2237377166748,-0.434936046600342,-0.434936046600342,0.597426235675812,68.28125
0,1,15.836356,1605286023,3724037,2627,22733,0,0,2049.375,103.790283203125,-18.7884426116943,2.12482643127441,36.7872581481934,-0.14782939851284,-0.14782939851284,0.463035851716995,68.28125
0,1,15.870344,1605329702,3725231,2730,22735,153,0,2049.765625,103.485107421875,-16.6779747009277,4.62293338775635,19.6450748443604,0.239459171891212,0.239459171891212,0.00733038270846009,68.3125
0,1,15.966383,1605371318,3726405,2808,22739,0,0,2049.453125,103.466796875,-1.91904377937317,19.9178562164307,-0.732203722000122,0.216246291995049,0.216246291995049,-1.07023584842682,68.3203125
0,1,15.978374,1605411653,3727525,2683,22748,632,0,2049.41381835938,103.472900390625,-8.10688304901123,-7.47039222717285,8.91565704345703,0.482583522796631,0.482583522796631,-0.488692194223404,68.328125
0,1,16.012392,1605453095,3728590,2550,22762,682,0,2048.8671875,103.762817382813,-6.64726161956787,-6.44147920608521,7.87238693237305,0.285884916782379,0.285884916782379,0.368962615728378,68.3984375
0,1,16.056406,1605495321,3729672,2510,22775,652,0,2049.375,105.8349609375,14.6871452331543,14.275580406189,-4.73778867721558,-0.108734011650085,-0.108734011650085,-0.472809702157974,68.359375
0,1,16.091414,1605537188,3730691,2431,22786,556,0,2048.828125,106.741333007813,36.8494682312012,-4.89571523666382,23.6410884857178,0.0305432621389627,0.0305432621389627,-0.504574656486511,68.41796875
0,1,16.181549,1605579409,3731654,2189,22796,520,0,2049.2578125,108.346557617188,37.1318244934082,22.9471683502197,27.6849594116211,0.139277264475822,0.139277264475822,0.629191160202026,68.484375
0,1,16.184547,1605620339,3732500,2000,22802,278,0,2049.7265625,110.595703125,0.387637257575989,-0.0143569353967905,-3.08195567131042,0.0696386322379112,0.0696386322379112,0.219911485910416,68.5234375
0,1,16.208568,1605662985,3733381,2042,22810,456,0,2049.453125,110.708618164063,4.83828783035278,-5.66620397567749,8.99222755432129,0.00733038270846009,0.00733038270846009,0.416610062122345,68.60546875
0,1,16.253564,1605705632,3734211,1904,22819,404,0,2049.5703125,110.8154296875,3.48873567581177,-1.42133665084839,4.96271419525146,0.0305432621389627,0.0305432621389627,0.274889349937439,68.64453125
0,1,16.289572,1605748129,3734994,1801,22827,416,0,2049.17944335938,112.484741210938,-7.68574666976929,0.68434727191925,7.72881698608398,0.0696386322379112,0.0696386322379112,-0.056199599057436,68.66796875
0,1,16.341584,1605788702,3735733,1771,22836,405,0,2049.2578125,112.887573242188,-1.64147627353668,5.43649244308472,5.94855690002441,-0.0623082555830479,-0.0623082555830479,0.329867213964462,68.65234375
0,1,16.4186,1605831333,3736473,1771,22844,374,0,2049.2578125,113.7451171875,-2.19661140441895,-0.00957129057496786,7.33160877227783,-0.03176499158144,-0.03176499158144,0.117286123335361,68.7109375
0,1,16.421605,1605873215,3737170,1617,22852,374,0,2049.296875,113.787841796875,3.25902438163757,-1.41655099391937,11.5094766616821,-0.0855211317539215,-0.0855211317539215,0.304210871458054,68.7734375
0,1,16.477614,1605915864,3737876,1610,22860,366,0,2049.375,115.237426757813,8.26480960845947,0.885344386100769,10.8682012557983,-0.0708603635430336,-0.0708603635430336,0.133168622851372,68.78125
0,1,16.523628,1605958184,3738541,1566,22867,364,0,2049.296875,117.153930664063,-7.79581642150879,0.291924357414246,11.3802642822266,-0.272445887327194,-0.272445887327194,0.195476874709129,68.8125
0,1,16.54463,1606002170,3739255,1542,22875,361,0,2049.17944335938,117.742919921875,0.646062076091766,-3.11545538902283,7.6618185043335,-0.01588249579072,-0.01588249579072,0.235793977975845,68.8515625
0,1,16.592642,1606045041,3739933,1786,22883,348,0,2052.890625,117.901611328125,6.57069110870361,3.74237442016602,6.14955425262451,-0.0390953756868839,-0.0390953756868839,0.149051114916801,68.828125
0,1,16.661656,1606087569,3740634,1556,22891,369,0,2052.34350585938,117.922973632813,-5.10149812698364,-2.48375010490417,4.91007232666016,-0.171042263507843,-0.171042263507843,0.149051114916801,68.84375
0,1,16.681662,1606132678,3741423,1867,22899,408,0,2052.734375,117.730712890625,12.299108505249,4.11086940765381,16.7210445404053,-0.272445887327194,-0.272445887327194,0.24312436580658,68.89453125
0,1,16.723671,1606173238,3742120,1689,22907,395,0,2053.125,117.78564453125,7.4943208694458,-1.91425800323486,1.85683047771454,-0.108734011650085,-0.108734011650085,0.22724187374115,68.91796875
0,1,16.756677,1606215824,3742865,1687,22915,364,0,2052.5,118.463134765625,-1.7898313999176,3.38345122337341,4.74257469177246,-0.0781907513737679,-0.0781907513737679,0.251676470041275,69.14453125
0,1,16.80569,1606257337,3743562,1775,22923,369,0,2053.08569335938,119.168090820313,-11.19362449646,-2.56989169120789,8.66680335998535,-0.117286123335361,-0.117286123335361,0.140499010682106,69.00390625
0,1,16.853698,1606299700,3744271,1625,22931,369,0,2052.96875,119.174194335938,5.80977344512939,-1.72283244132996,11.1314115524292,-0.201585531234741,-0.201585531234741,0.274889349937439,69.0234375
0,1,16.928717,1606344643,3745018,1636,22939,362,0,2052.81225585938,119.110107421875,-3.58444833755493,-4.70907497406006,16.1036968231201,-0.124616511166096,-0.124616511166096,0.251676470041275,69.08203125
0,1,16.937719,1606386595,3745668,1534,22947,351,0,2053.984375,119.1162109375,0.583848714828491,-4.41236543655396,11.0452690124512,-0.04764748737216,-0.04764748737216,0.251676470041275,69.0703125
0,1,16.978731,1606427420,3746324,1530,22954,351,0,2052.7734375,119.1162109375,-2.50767827033997,-0.0143569353967905,4.06779861450195,-0.04764748737216,-0.04764748737216,0.21135938167572,71.70703125
0,1,17.011734,1606468944,3746938,1508,22961,341,0,2053.046875,119.5556640625,-3.99122834205627,2.31146669387817,10.9591283798218,-0.0781907513737679,-0.0781907513737679,0.0696386322379112,69.15234375
0,1,17.053745,1606511375,3747645,1558,22969,339,0,2053.55444335938,119.888305664063,-9.53779125213623,-0.693918585777283,8.67158889770508,0.0146607654169202,0.0146607654169202,0.259006857872009,69.19140625
0,1,17.106758,1606553732,3748321,1855,22976,339,0,2052.734375,119.760131835938,2.28753852844238,3.26859593391418,0.430708110332489,0.0537561401724815,0.0537561401724815,0.251676470041275,69.22265625
0,1,17.139768,1606594638,3749035,1635,22983,346,0,2052.3828125,119.723510742188,-10.0307130813599,-3.1537401676178,12.1842527389526,0.519235491752625,0.519235491752625,0.00733038270846009,69.24609375
0,1,17.213783,1606635313,3749730,1758,22991,387,0,2053.08569335938,119.711303710938,12.0550403594971,7.90588617324829,9.52343368530273,-0.0855211317539215,-0.0855211317539215,0.574213325977325,69.25
0,1,17.224783,1606676190,3750399,1590,22998,362,0,2052.734375,120.016479492188,5.33599472045898,-1.13419783115387,9.25065231323242,-0.117286123335361,-0.117286123335361,0.109955742955208,69.2890625
0,1,17.259791,1606717160,3751089,1649,23006,365,0,2053.6328125,119.906616210938,4.09172677993774,0.851844847202301,9.13101196289063,-0.0549778714776039,-0.0549778714776039,0.22724187374115,69.24609375
0,1,17.310804,1606759685,3751766,1605,23013,341,0,2052.6953125,119.17724609375,-5.42692184448242,-3.4695930480957,11.475977897644,0,0,-0.138055548071861,69.23828125
0,1,17.352813,1606803736,3752493,1566,23021,332,0,2052.57788085938,119.247436523438,5.54656267166138,-3.2207396030426,8.05424118041992,0.00733038270846009,0.00733038270846009,0.0696386322379112,69.33203125
0,1,17.393825,1606846629,3753174,1697,23028,351,0,2052.890625,118.02978515625,-1.13898360729218,-1.00019991397858,10.4183492660522,0.139277264475822,0.139277264475822,0.188146486878395,69.296875
0,1,17.463837,1606888203,3753821,1489,23036,352,0,2053.125,117.660522460938,-3.51266384124756,3.33559489250183,5.58006238937378,0.00733038270846009,0.00733038270846009,0.408057987689972,69.34375
0,1,17.481841,1606930372,3754512,1784,23043,378,0,2052.734375,117.803955078125,0.272781759500504,5.9533429145813,15.7543439865112,0,0,0.156381502747536,69.3828125
0,1,17.519849,1606972948,3755202,1566,23051,370,0,2052.265625,117.5537109375,0.478564500808716,1.25862467288971,8.70987510681152,0.0464257597923279,0.0464257597923279,0.109955742955208,69.390625
0,1,17.557857,1607015305,3755962,1778,23058,400,0,2049.41381835938,117.111206054688,1.30169558525085,3.50309228897095,4.43629360198975,0.107512280344963,0.107512280344963,0.408057987689972,69.41796875
0,1,17.599868,1607056069,3756655,1740,23066,357,0,2049.609375,117.123413085938,9.078369140625,1.46440744400024,3.00538492202759,0,0,0.195476874709129,69.390625
0,1,17.64488,1607098834,3757382,1653,23074,353,0,2049.453125,117.514038085938,1.6223338842392,-1.04327070713043,7.80538702011108,0.0537561401724815,0.0537561401724815,0.321315109729767,69.3828125
0,1,17.714896,1607143835,3758134,1707,23082,373,0,2049.296875,118.731689453125,-10.1312122344971,8.00638484954834,11.7056894302368,0.0696386322379112,0.0696386322379112,0.549778699874878,69.3671875
0,1,17.728896,1607185090,3758805,1588,23090,366,0,2049.4921875,120.391845703125,-4.74257469177246,3.44087910652161,8.47059154510498,-0.140499010682106,-0.140499010682106,0.432492583990097,69.4921875
0,1,17.768906,1607227608,3759501,1581,23097,357,0,2049.375,120.394897460938,6.13519763946533,-2.44546461105347,11.0739831924438,-0.0855211317539215,-0.0855211317539215,0.22724187374115,69.4453125
0,1,17.813919,1607267985,3760122,1544,23104,345,0,2049.4921875,119.677734375,-3.67537546157837,-3.26381015777588,11.9066858291626,0.0842994004487991,0.0842994004487991,0.125838235020638,69.4375
0,1,17.860927,1607310330,3760796,1518,23112,350,0,2049.6875,119.378662109375,-3.86680150032043,0.421136766672134,5.63270425796509,0.0610865242779255,0.0610865242779255,0.24312436580658,69.54296875
0,1,17.944948,1607352712,3761446,1673,23119,337,0,2049.4921875,119.390869140625,0.0239282269030809,0.617348253726959,-6.85783004760742,-0.04764748737216,-0.04764748737216,0.140499010682106,69.48828125
0,1,17.955948,1607395901,3762174,1585,23127,361,0,2049.453125,119.479370117188,1.03369951248169,-3.90987229347229,12.8351001739502,0.0769690200686455,0.0769690200686455,0.259006857872009,69.58203125
0,1,18.004959,1607436908,3762881,1937,23135,374,0,2049.4921875,119.509887695313,-1.83290219306946,4.23051023483276,12.1986093521118,0.208915904164314,0.208915904164314,0.0623082555830479,69.5234375
0,1,18.039969,1607479373,3763628,1695,23143,379,0,2048.828125,120.089721679688,3.28295254707336,6.37447929382324,-4.24008226394653,-0.0390953756868839,-0.0390953756868839,0.133168622851372,69.5703125
0,1,18.068974,1607519572,3764338,1720,23151,386,0,2049.53125,120.565795898438,7.63789033889771,1.16291177272797,7.52303409576416,0.0537561401724815,0.0537561401724815,-0.0708603635430336,69.5859375
0,1,18.112986,1607561915,3765049,1721,23158,346,0,2049.6875,120.327758789063,0.0334995202720165,-1.04327070713043,4.55114889144897,-0.0390953756868839,-0.0390953756868839,0.384845077991486,69.5625
0,1,18.183,1607603806,3765763,1661,23166,377,0,2049.53125,119.998168945313,-2.96231436729431,0.196211457252502,6.90090036392212,0.107512280344963,0.107512280344963,0.040317103266716,69.68359375
0,1,18.192004,1607645938,3766467,1714,23174,367,0,2049.296875,120.062255859375,12.2081813812256,1.31126689910889,9.69093132019043,0.0842994004487991,0.0842994004487991,0.21135938167572,69.68359375
0,1,18.240014,1607687059,3767134,1585,23182,363,0,2049.2578125,120.071411132813,-12.5575332641602,2.09132695198059,5.90070009231567,0.0537561401724815,0.0537561401724815,0.21135938167572,69.67578125
0,1,18.272022,1607727530,3767800,1630,23189,359,0,2049.4921875,120.1416015625,7.63310384750366,0.516849756240845,13.284951210022,-0.0549778714776039,-0.0549778714776039,0.125838235020638,69.68359375
0,1,18.32429,1607769830,3768459,1540,23196,356,0,2049.21875,120.3125,-1.8185453414917,-2.13918328285217,11.8109722137451,0.0146607654169202,0.0146607654169202,0.329867213964462,69.7265625
0,1,18.416314,1607812188,3769157,1583,23204,358,0,2049.453125,120.315551757813,-1.90947258472443,-1.04805624485016,10.5619192123413,-0.0708603635430336,-0.0708603635430336,0.133168622851372,69.76953125
0,1,18.421312,1607852779,3769788,1611,23211,342,0,2049.453125,120.309448242188,-1.7898313999176,-7.45603561401367,13.7060880661011,-0.117286123335361,-0.117286123335361,0.164933606982231,69.70703125
0,1,18.441316,1607893577,3770482,1598,23218,343,0,2049.2578125,120.3125,13.0121698379517,-1.02412807941437,6.1399827003479,0.0769690200686455,0.0769690200686455,0.0855211317539215,69.76171875
0,1,18.480328,1607934617,3771162,1892,23226,344,0,2049.88256835938,120.578002929688,-10.9208421707153,2.05782747268677,14.084153175354,0.0928515195846558,0.0928515195846558,0.180816113948822,69.75390625
0,1,18.517333,1607975236,3771871,1654,23233,360,0,2049.3359375,121.026611328125,1.45005059242249,-1.09591269493103,6.42233610153198,-0.449596792459488,-0.449596792459488,-0.237015709280968,69.82421875
0,1,18.571348,1608017463,3772595,1722,23240,353,0,2052.9296875,121.347045898438,1.56969165802002,0.449850678443909,12.7441740036011,-0.0549778714776039,-0.0549778714776039,0.164933606982231,71.671875
0,1,18.66738,1608059603,3773279,1591,23248,347,0,2052.3828125,121.438598632813,10.4231357574463,2.69910407066345,13.8353004455566,0.0464257597923279,0.0464257597923279,0.109955742955208,69.92578125
0,1,18.670381,1608099910,3773957,1627,23255,355,0,2052.734375,122.146606445313,-0.00957129057496786,3.62751913070679,3.09152698516846,-0.131946891546249,-0.131946891546249,0.0464257597923279,69.859375
0,1,18.683382,1608142518,3774638,1650,23262,339,0,2052.81225585938,122.64404296875,6.12562608718872,-3.6562328338623,1.33519506454468,0.0378736443817616,0.0378736443817616,0.0781907513737679,69.859375
0,1,18.724389,1608182794,3775300,1592,23270,373,0,2052.4609375,121.08154296875,-9.82492923736572,-2.99581384658813,14.6775741577148,0.162490159273148,0.162490159273148,0.290771842002869,69.86328125
0,1,18.766399,1608225098,3775999,1820,23278,377,0,2052.96875,120.9716796875,4.45064973831177,5.69970369338989,4.77607440948486,0.178372651338577,0.178372651338577,0.101403623819351,69.859375
0,1,18.808409,1608267160,3776708,1632,23286,372,0,2052.65625,121.987915039063,-3.17766880989075,3.19202542304993,3.18723964691162,-0.0549778714776039,-0.0549778714776039,0.140499010682106,69.84375
0,1,18.867662,1608308217,3777428,1767,23293,392,0,2052.734375,122.079467773438,6.685546875,2.68474698066711,10.7342023849487,-0.03176499158144,-0.03176499158144,0.156381502747536,69.875
0,1,18.912672,1608350377,3778130,1654,23301,380,0,2052.4609375,122.085571289063,-13.6343040466309,-2.23011088371277,8.08774089813232,0.26511549949646,0.26511549949646,0.0623082555830479,69.890625
0,1,18.951677,1608391253,3778857,1702,23309,371,0,2053.75,122.314453125,10.0115699768066,3.42173647880554,6.25483846664429,0.0378736443817616,0.0378736443817616,0.0549778714776039,69.9140625
0,1,18.982686,1608431345,3779535,1788,23316,358,0,2052.6953125,122.412109375,3.19202542304993,-0.129212439060211,7.48953533172607,0,0,-0.056199599057436,69.8984375
0,1,19.064703,1608473653,3780245,1623,23324,369,0,2052.4609375,122.412109375,-6.1734824180603,3.39780831336975,8.84387302398682,-0.298102229833603,-0.298102229833603,0.0390953756868839,69.95703125
0,1,19.072704,1608515285,3780949,1729,23332,378,0,2052.4609375,122.457885742188,-5.60877704620361,4.10608386993408,16.1659088134766,-0.101403623819351,-0.101403623819351,0.00733038270846009,69.953125
0,1,19.106715,1608557440,3781633,1586,23340,355,0,2052.96875,122.750854492188,3.7471604347229,-1.58404862880707,10.5906324386597,-0.0232128798961639,-0.0232128798961639,0.109955742955208,69.92578125
0,1,19.146722,1608599646,3782361,1684,23348,369,0,2053.28125,122.470092773438,1.87597298622131,0.818345308303833,6.56590509414673,0.0928515195846558,0.0928515195846558,0.22724187374115,69.93359375
0,1,19.19021,1608642425,3783072,1764,23355,362,0,2052.890625,122.647094726563,-4.19222497940063,5.77627372741699,-2.69910407066345,-0.0232128798961639,-0.0232128798961639,0.0696386322379112,69.97265625
0,1,19.263226,1608683310,3783779,1652,23363,371,0,2052.1484375,122.894287109375,1.82811641693115,1.04327070713043,10.1407823562622,-0.186924755573273,-0.186924755573273,0.180816113948822,69.953125
0,1,19.274233,1608725867,3784508,1795,23371,385,0,2052.7734375,122.9248046875,-8.45144939422607,2.30668115615845,4.06779861450195,-0.140499010682106,-0.140499010682106,0.188146486878395,70.07421875
0,1,19.312242,1608766223,3785182,1630,23379,372,0,2052.6171875,122.940063476563,2.737389087677,1.34476637840271,2.82353067398071,-0.0549778714776039,-0.0549778714776039,0.195476874709129,70.02734375
0,1,19.358252,1608808626,3785906,1660,23387,375,0,2053.0078125,122.940063476563,-2.64167618751526,-1.00019991397858,11.4616203308105,0.0305432621389627,0.0305432621389627,0.180816113948822,70.03515625
0,1,19.401246,1608850938,3786590,1657,23395,373,0,2052.81225585938,122.8759765625,1.65104758739471,3.89072966575623,9.77228832244873,0.0146607654169202,0.0146607654169202,0.259006857872009,69.9609375
0,1,19.442256,1608894025,3787318,1613,23403,359,0,2052.890625,123.648071289063,-6.31705236434937,-6.87697219848633,9.94935607910156,-0.0549778714776039,-0.0549778714776039,0.0146607654169202,72.734375
0,1,19.497264,1608945893,3788194,1757,23413,397,0,2052.81225585938,123.40087890625,-11.251051902771,0.646062076091766,6.79083061218262,0.0305432621389627,0.0305432621389627,0.0781907513737679,70.125
0,1,19.559277,1609011032,3789304,1813,23425,400,0,2052.3046875,123.428344726563,-2.70388960838318,4.16829681396484,11.2845516204834,0.0146607654169202,0.0146607654169202,0.290771842002869,70.2109375
0,1,19.593285,1609052713,3790006,1640,23433,376,0,2049.2578125,123.361206054688,0.148355007171631,-0.119641125202179,2.22532486915588,-0.0232128798961639,-0.0232128798961639,0.39217546582222,70.24609375
0,1,19.645297,1609095212,3790744,1693,23441,376,0,2049.7265625,123.321533203125,-5.47956418991089,-2.0386848449707,5.26420927047729,-0.0708603635430336,-0.0708603635430336,0.0146607654169202,70.20703125
0,1,19.712312,1609135266,3791408,1700,23449,376,0,2049.609375,123.287963867188,3.26859593391418,-1.28733861446381,7.48953533172607,0.00733038270846009,0.00733038270846009,0.455705463886261,70.234375
0,1,19.724315,1609177886,3792153,1681,23457,380,0,2049.2578125,123.30322265625,-2.55553460121155,2.03389930725098,11.0356979370117,-0.0232128798961639,-0.0232128798961639,0.109955742955208,70.26953125
0,1,19.767326,1609219593,3792872,1812,23465,395,0,2049.3359375,123.297119140625,-2.90967226028442,2.40239381790161,7.76231670379639,-0.155159771442413,-0.155159771442413,0.0623082555830479,70.21875
0,1,19.810335,1609262888,3793600,1635,23473,374,0,2049.375,123.251342773438,1.32083809375763,-2.09132695198059,8.858229637146,-0.0549778714776039,-0.0549778714776039,0.0232128798961639,70.28515625
0,1,19.850348,1609305350,3794347,1725,23481,387,0,2049.375,123.251342773438,5.43170738220215,-3.41695070266724,6.93918609619141,0.0842994004487991,0.0842994004487991,0.149051114916801,70.42578125
0,1,19.91245,1609345853,3795032,1751,23489,398,0,2049.0234375,123.2666015625,4.1012978553772,5.02492761611938,4.00079965591431,0.130725160241127,0.130725160241127,-0.0708603635430336,70.29296875
0,1,19.935653,1609388456,3795786,1716,23497,384,0,2049.41381835938,123.269653320313,-1.25383913516998,1.74676048755646,11.3180503845215,0.250454753637314,0.250454753637314,-0.118507854640484,72.89453125
0,1,19.977465,1609431178,3796527,1758,23506,403,0,2049.17944335938,123.260498046875,-12.5479621887207,1.57447731494904,5.18763971328735,-0.04764748737216,-0.04764748737216,0.164933606982231,71.61328125
0,1,20.022475,1609472245,3797206,1620,23514,379,0,2049.84375,123.214721679688,4.18743944168091,-4.62293338775635,13.4620208740234,-0.117286123335361,-0.117286123335361,0.0390953756868839,72.75
0,1,20.095487,1609515368,3797949,1674,23522,379,0,2049.5703125,123.1689453125,1.20119690895081,-7.52303409576416,9.25065231323242,0.00733038270846009,0.00733038270846009,0.0232128798961639,70.3359375
0,1,20.105494,1609557762,3798651,1749,23530,376,0,2049.41381835938,123.165893554688,5.70448923110962,3.19202542304993,-2.82353067398071,0.146607652306557,0.146607652306557,0.195476874709129,70.3125
0,1,20.139497,1609598396,3799358,1674,23538,394,0,2049.53125,123.18115234375,1.03369951248169,1.2825528383255,11.6147603988647,0.178372651338577,0.178372651338577,0.0623082555830479,70.32421875
0,1,20.182511,1609640689,3800084,1773,23546,395,0,2049.296875,123.507690429688,4.33579444885254,5.72363185882568,8.21216773986816,-0.0708603635430336,-0.0708603635430336,-0.125838235020638,70.34765625
0,1,20.227521,1609683222,3800786,1611,23554,374,0,2049.5703125,123.904418945313,-4.05344152450562,3.45523595809937,5.18763971328735,-0.108734011650085,-0.108734011650085,-0.01588249579072,70.33984375
0,1,20.283727,1609723636,3801465,1632,23562,386,0,2049.4921875,123.66943359375,-2.2109682559967,-6.99182796478271,13.4620208740234,0.107512280344963,0.107512280344963,-0.276111096143723,70.3125
0,1,20.30954,1609764244,3802105,1576,23569,370,0,2049.17944335938,121.9482421875,-2.56989169120789,-2.20618271827698,14.744574546814,0,0,-0.212581098079681,70.3515625
0,1,20.352549,1609807765,3802853,1638,23578,398,0,2049.375,121.710205078125,6.70947504043579,0.435493737459183,5.12064075469971,0.0842994004487991,0.0842994004487991,-0.056199599057436,70.421875
0,1,20.400607,1609848007,3803523,1801,23585,369,0,2049.17944335938,123.379516601563,-6.42233610153198,2.28753852844238,6.0969123840332,-0.0855211317539215,-0.0855211317539215,-0.04764748737216,70.390625
0,1,20.466675,1609890428,3804243,1628,23594,371,0,2050.1171875,124.575805664063,3.50787806510925,-4.9770712852478,12.8829584121704,0.0610865242779255,0.0610865242779255,0.0464257597923279,70.3828125
0,1,20.486679,1609930962,3804935,1749,23601,382,0,2049.64819335938,124.215698242188,-8.20738220214844,2.07218432426453,8.13081169128418,0.0842994004487991,0.0842994004487991,-0.205250710248947,70.390625
0,1,20.526688,1609972613,3805619,1607,23609,368,0,2049.41381835938,124.249267578125,4.11086940765381,3.62273359298706,8.98744106292725,0.294437050819397,0.294437050819397,0.0549778714776039,70.4140625
0,1,20.557695,1610016241,3806377,1693,23617,389,0,2052.734375,124.496459960938,-8.12602615356445,-0.210568383336067,8.05424118041992,0.00733038270846009,0.00733038270846009,-0.205250710248947,70.36328125
0,1,20.605823,1610056578,3807050,1746,23625,374,0,2052.7734375,124.496459960938,5.91027212142944,0.378066003322601,1.33998072147369,-0.03176499158144,-0.03176499158144,0.0623082555830479,70.375
0,1,20.677825,1610098919,3807787,1670,23633,369,0,2052.5390625,124.301147460938,11.9066858291626,5.23071050643921,10.0307130813599,0.257785111665726,0.257785111665726,-0.0635299831628799,70.3984375
0,1,20.689828,1610146702,3808609,1746,23642,390,0,2052.1484375,124.30419921875,-1.61754810810089,-1.57926309108734,10.3034954071045,-0.0232128798961639,-0.0232128798961639,-0.166155353188515,70.4140625
0,1,20.733838,1610189330,3809324,1660,23650,376,0,2052.34350585938,124.163818359375,-1.10069835186005,-2.53639197349548,10.0689973831177,0.0610865242779255,0.0610865242779255,-0.125838235020638,70.421875
0,1,20.775848,1610231061,3810047,1671,23658,390,0,2052.65625,124.191284179688,1.94775760173798,0.545563519001007,7.00618457794189,0.224798396229744,0.224798396229744,-0.205250710248947,70.44140625
0,1,20.814857,1610273200,3810762,1825,23667,393,0,2052.734375,124.154663085938,-2.19182538986206,0.263210475444794,10.9734840393066,0.0769690200686455,0.0769690200686455,-0.11117747426033,70.4609375
0,1,20.876871,1610315544,3811488,1663,23675,380,0,2052.6171875,123.84033203125,-2.89531517028809,-0.306281298398972,14.9742841720581,0.0378736443817616,0.0378736443817616,-0.244346097111702,70.41796875
0,1,20.907858,1610357836,3812233,1773,23683,389,0,2052.6171875,123.562622070313,0.497707098722458,-2.93838596343994,8.43230724334717,-0.0708603635430336,-0.0708603635430336,-0.527787566184998,70.45703125
0,1,20.947868,1610400691,3812960,1698,23691,384,0,2052.7734375,123.6083984375,2.4885356426239,0.0191425811499357,10.50927734375,-0.00855211354792118,-0.00855211354792118,-0.574213325977325,70.4609375
0,1,20.994898,1610443263,3813700,1660,23700,383,0,2052.734375,123.59619140625,3.75194597244263,-2.41675090789795,5.01535654067993,-0.0390953756868839,-0.0390953756868839,-0.660956203937531,70.51953125
0,1,21.068914,1610485508,3814418,1822,23708,382,0,2052.0703125,123.263549804688,0.133998081088066,-3.71366095542908,13.4428777694702,0.153938040137291,0.153938040137291,-0.33841934800148,70.48046875
0,1,21.074916,1610526410,3815111,1645,23716,370,0,2053.0078125,123.672485351563,-1.37348020076752,5.60399055480957,10.6432752609253,0.0305432621389627,0.0305432621389627,-0.0244346093386412,70.453125
0,1,21.111922,1610568866,3815835,1683,23724,377,0,2052.5,124.8291015625,2.42153668403625,-3.36909413337708,8.26959609985352,0.0305432621389627,0.0305432621389627,-0.221133202314377,70.48828125
0,1,21.153933,1610608987,3816482,1590,23731,364,0,2052.734375,124.703979492188,8.59980487823486,-2.70388960838318,3.53180646896362,-0.0940732434391975,-0.0940732434391975,-0.196698606014252,70.48828125
0,1,21.19994,1610651189,3817200,1651,23739,378,0,2052.890625,122.210693359375,-5.57049083709717,-1.19162571430206,3.42652201652527,0.100181899964809,0.100181899964809,-0.141720727086067,70.51953125
0,1,21.259957,1610693837,3817910,1784,23747,369,0,2052.9296875,120.498657226563,-3.81415939331055,3.27338123321533,2.84267330169678,0.178372651338577,0.178372651338577,0.21135938167572,70.53515625
0,1,21.274961,1610733988,3818596,1650,23755,362,0,2052.9296875,120.516967773438,-3.36909413337708,-2.4885356426239,13.591233253479,0.00733038270846009,0.00733038270846009,-0.196698606014252,70.52734375
0,1,21.326973,1610774807,3819292,1770,23762,363,0,2052.81225585938,120.599365234375,-6.28833770751953,2.28753852844238,9.23151016235352,-0.01588249579072,-0.01588249579072,-0.102625355124474,70.6015625
0,1,21.375984,1610824016,3820095,1607,23771,363,0,2053.046875,120.516967773438,1.67019021511078,-4.65643310546875,9.47557735443115,-0.0232128798961639,-0.0232128798961639,-0.543670058250427,72.96875
0,1,21.452,1610866598,3820833,1651,23779,375,0,2052.6953125,120.52001953125,0.440279364585876,-0.808774054050446,4.01994228363037,-0.01588249579072,-0.01588249579072,-0.11117747426033,70.609375
0,1,21.458002,1610908923,3821536,1813,23787,378,0,2052.96875,120.611572265625,-10.566704750061,-3.11545538902283,6.74776029586792,0.0842994004487991,0.0842994004487991,-0.26022857427597,70.59375
0,1,21.503012,1610951142,3822257,1643,23796,390,0,2052.96875,120.697021484375,-2.32103800773621,-2.41675090789795,9.77707290649414,0.0378736443817616,0.0378736443817616,-0.196698606014252,70.671875
0,1,21.534019,1610992340,3822962,1724,23803,369,0,2052.57788085938,120.916748046875,12.1890392303467,-0.67956155538559,12.7154588699341,0.139277264475822,0.139277264475822,-0.11117747426033,70.625
0,1,21.579134,1611032902,3823618,1583,23811,358,0,2049.84375,121.224975585938,-7.23589611053467,6.9822564125061,6.67118978500366,0.0537561401724815,0.0537561401724815,-0.102625355124474,70.6640625
0,1,21.628145,1611073938,3824311,1640,23818,356,0,2049.765625,122.49755859375,-7.36510801315308,2.16311192512512,13.3998069763184,-0.388510286808014,-0.388510286808014,-1.02258837223053,70.74609375
0,1,21.658151,1611116599,3824986,1623,23826,361,0,2049.4921875,122.44873046875,2.64646196365356,-5.04885578155518,13.6151609420776,-0.178372651338577,-0.178372651338577,-0.417831808328629,70.671875
0,1,21.717165,1611159061,3825696,1592,23833,360,0,2049.3359375,122.262573242188,2.38803720474243,0.899701356887817,7.61396169662476,0.178372651338577,0.178372651338577,-0.299323976039886,70.71484375
0,1,21.748172,1611199659,3826359,1792,23841,343,0,2049.17944335938,122.320556640625,-1.45005059242249,1.21076834201813,4.5559344291687,0.178372651338577,0.178372651338577,-0.125838235020638,70.703125
0,1,21.784176,1611241609,3827052,1575,23848,363,0,2049.41381835938,122.299194335938,-5.62313318252563,-0.143569365143776,11.0213403701782,-0.03176499158144,-0.03176499158144,-0.0256563387811184,70.73046875
0,1,21.826189,1611284275,3827775,1750,23856,379,0,2049.2578125,122.201538085938,11.7726879119873,-1.27298164367676,11.3467645645142,0.0769690200686455,0.0769690200686455,0,70.73828125
0,1,21.868199,1611327138,3828471,1598,23864,362,0,2049.41381835938,122.20458984375,-3.30209517478943,-3.98165678977966,15.2709941864014,0.0928515195846558,0.0928515195846558,-0.166155353188515,70.7890625
0,1,21.928213,1611369610,3829216,1684,23872,372,0,2049.453125,122.0947265625,-7.87717199325562,1.9860428571701,2.87138748168945,0.107512280344963,0.107512280344963,-0.26022857427597,70.71484375
0,1,21.951218,1611410070,3829891,1787,23879,342,0,2049.64819335938,121.978759765625,6.90090036392212,2.344966173172,-0.947557806968689,0.0305432621389627,0.0305432621389627,-0.291993588209152,70.7578125
0,1,21.993331,1611452838,3830625,1630,23887,332,0,2049.6875,121.649169921875,-0.162711948156357,1.51226401329041,10.6576318740845,-0.0940732434391975,-0.0940732434391975,-0.26022857427597,70.76953125
0,1,22.03434,1611493518,3831312,1746,23894,356,0,2049.453125,120.773315429688,9.66221809387207,0.186640173196793,14.5770750045776,0.0305432621389627,0.0305432621389627,-0.173485726118088,73.31640625
0,1,22.085352,1611536582,3832008,1574,23901,340,0,2049.41381835938,119.952392578125,1.3974084854126,3.90030097961426,12.7202453613281,0.130725160241127,0.130725160241127,0.0305432621389627,70.7578125
0,1,22.12436,1611579175,3832720,1616,23908,353,0,2049.453125,120.245361328125,1.93818628787994,-0.057427741587162,5.89591503143311,-0.117286123335361,-0.117286123335361,-0.344527989625931,70.80078125
0,1,22.164369,1611623210,3833408,1626,23916,331,0,2049.17944335938,121.047973632813,-13.9357995986938,-3.13459801673889,4.92921495437622,-0.16371189057827,-0.16371189057827,-0.150272846221924,70.77734375
0,1,22.252389,1611665855,3834122,1570,23923,350,0,2049.7265625,120.834350585938,6.7286171913147,3.60359072685242,11.4089784622192,-0.101403623819351,-0.101403623819351,-0.134390354156494,70.76171875
0,1,22.262391,1611708620,3834829,1834,23931,356,0,2049.4921875,121.023559570313,9.26979446411133,-3.57966279983521,18.3768787384033,-0.124616511166096,-0.124616511166096,-0.0952949747443199,70.73828125
0,1,22.291398,1611750045,3835515,1585,23938,361,0,2049.7265625,120.904541015625,-10.3369932174683,0.148355007171631,2.34018063545227,-0.0855211317539215,-0.0855211317539215,-0.244346097111702,70.81640625
0,1,22.34341,1611791111,3836229,1772,23945,367,0,2049.8046875,119.921875,2.72781777381897,0.521635353565216,16.8215427398682,-0.00855211354792118,-0.00855211354792118,-0.976162672042847,70.76171875
0,1,22.384419,1611833686,3836939,1655,23953,365,0,2049.21875,120.037841796875,5.33120918273926,2.07218432426453,10.671989440918,0.0696386322379112,0.0696386322379112,-0.464257568120956,70.81640625
0,1,22.422428,1611875810,3837660,1652,23961,346,0,2049.375,121.878051757813,-4.47457790374756,3.62751913070679,3.54137754440308,-0.0623082555830479,-0.0623082555830479,-0.393397212028503,70.86328125
0,1,22.460436,1611918268,3838360,1742,23968,325,0,2049.453125,122.653198242188,-0.287138730287552,-0.617348253726959,9.41814994812012,-0.0549778714776039,-0.0549778714776039,-0.0952949747443199,70.875
0,1,22.51945,1611966254,3839135,1554,23976,361,0,2049.1015625,122.2412109375,-0.392422914505005,-0.0334995202720165,7.44646406173706,-0.101403623819351,-0.101403623819351,-0.26022857427597,70.8671875
0,1,22.549457,1612007528,3839833,1704,23984,366,0,2053.1640625,122.402954101563,-0.880558729171753,-0.0334995202720165,9.3128662109375,0.0769690200686455,0.0769690200686455,-0.0794124826788902,70.84375
0,1,22.595467,1612048114,3840482,1569,23990,343,0,2052.7734375,122.564697265625,-5.74277496337891,0.612562596797943,10.0785694122314,0.0146607654169202,0.0146607654169202,-0.433714330196381,70.859375
0,1,22.630475,1612088722,3841205,1722,23998,365,0,2052.890625,123.287963867188,13.0887403488159,-3.79023122787476,7.93459987640381,-0.0708603635430336,-0.0708603635430336,-0.251676470041275,70.8359375
0,1,22.672484,1612131351,3841925,1782,24006,361,0,2052.5390625,123.593139648438,-4.65164709091187,-0.64127641916275,8.54237651824951,0.130725160241127,0.130725160241127,-0.0867428630590439,70.890625
0,1,22.726497,1612173845,3842631,1593,24013,370,0,2052.81225585938,123.495483398438,6.31705236434937,-2.15832591056824,13.6486597061157,0.162490159273148,0.162490159273148,-0.535117924213409,70.8671875
0,1,22.794512,1612214639,3843318,1757,24021,374,0,2052.85131835938,123.49853515625,-2.46460747718811,6.88654327392578,9.79143047332764,-0.00855211354792118,-0.00855211354792118,-0.267558962106705,70.8203125
0,1,22.799513,1612258900,3844037,1593,24029,355,0,2052.65625,123.892211914063,-8.64766120910645,-7.27896642684937,13.8448724746704,0.0305432621389627,0.0305432621389627,-0.125838235020638,70.8828125
0,1,22.844523,1612302314,3844799,1688,24037,345,0,2052.81225585938,123.880004882813,-7.67617511749268,0.205782756209373,0.330209523439407,0.139277264475822,0.139277264475822,-0.251676470041275,70.875
0,1,22.896535,1612344972,3845503,1758,24044,345,0,2053.0078125,124.551391601563,14.5005044937134,4.93400001525879,4.8670015335083,-0.117286123335361,-0.117286123335361,-0.417831808328629,70.875
0,1,22.930543,1612387365,3846212,1612,24051,339,0,2052.6171875,125.335693359375,8.88694381713867,-7.71924543380737,12.1220388412476,-0.140499010682106,-0.140499010682106,-0.322536826133728,71.265625
0,1,22.972552,1612428584,3846908,1782,24059,354,0,2052.81225585938,125.29296875,-8.71944522857666,0.153140649199486,6.36012268066406,-0.01588249579072,-0.01588249579072,-0.251676470041275,70.8828125
0,1,23.012561,1612471176,3847606,1592,24067,385,0,2052.6171875,125.271606445313,2.00518536567688,-2.97667145729065,11.1074838638306,0.285884916782379,0.285884916782379,-0.150272846221924,70.890625
0,1,23.073575,1612512779,3848345,1758,24075,396,0,2052.81225585938,125.29296875,-5.24506759643555,-0.626919567584991,8.1020975112915,0.294437050819397,0.294437050819397,-0.221133202314377,70.859375
0,1,23.097581,1612556431,3849094,1782,24083,381,0,2053.08569335938,125.762939453125,10.8442726135254,4.95314311981201,10.9447717666626,0.169820547103882,0.169820547103882,-0.393397212028503,70.90625
0,1,23.152593,1612598886,3849822,1669,24091,376,0,2052.734375,126.458740234375,5.43649244308472,4.72821760177612,8.8773717880249,-0.101403623819351,-0.101403623819351,-0.315206438302994,71.765625
0,1,23.189602,1612642251,3850550,1686,24099,367,0,2052.85131835938,126.608276367188,0.751346230506897,3.35952305793762,9.38465023040771,-0.16371189057827,-0.16371189057827,-0.166155353188515,70.8984375
0,1,23.234612,1612686184,3851261,1585,24107,354,0,2053.203125,126.242065429688,-3.69930362701416,-3.79980254173279,16.0797691345215,-0.01588249579072,-0.01588249579072,-0.331088960170746,70.9609375
0,1,23.272868,1612728685,3851954,1572,24115,359,0,2052.890625,126.416015625,0.306281298398972,-8.2360954284668,8.27916622161865,0.0146607654169202,0.0146607654169202,-0.291993588209152,70.94921875
0,1,23.338737,1612769792,3852595,1607,24122,349,0,2052.81225585938,126.211547851563,-4.26879549026489,-8.15473937988281,5.65184736251831,0.0769690200686455,0.0769690200686455,-0.125838235020638,70.9453125
0,1,23.351739,1612810428,3853292,1631,24129,364,0,2053.1640625,126.400756835938,9.96371364593506,5.2211389541626,5.41735076904297,0.216246291995049,0.216246291995049,-0.166155353188515,70.9296875
0,1,23.39675,1612852874,3854009,1890,24137,352,0,2052.85131835938,127.017211914063,2.94795751571655,1.87597298622131,6.10648345947266,0.185703039169312,0.185703039169312,0.313984751701355,71.01171875
0,1,23.438759,1612895118,3854742,1669,24145,383,0,2052.6953125,126.67236328125,6.76690244674683,4.09651231765747,10.3130655288696,-0.426383942365646,-0.426383942365646,0.762359797954559,70.92578125
0,1,23.482754,1612937412,3855475,1688,24153,371,0,2052.96875,126.034545898438,6.08734083175659,-1.15334057807922,18.6018047332764,1.17041790485382,1.17041790485382,-0.141720727086067,70.98828125
0,1,23.525779,1612984673,3856250,1696,24161,346,0,2052.3828125,125.87890625,-2.7948169708252,2.81395936012268,-1.37826585769653,-0.04764748737216,-0.04764748737216,-0.401949316263199,70.95703125
0,1,23.608798,1613025497,3856916,1542,24168,331,0,2049.92163085938,125.5126953125,12.0406837463379,-0.100498549640179,9.57129096984863,-0.0708603635430336,-0.0708603635430336,-0.511905074119568,70.97265625
0,1,23.610798,1613066686,3857565,1685,24175,344,0,2049.453125,124.221801757813,-1.48833572864532,-1.24426782131195,5.05364179611206,0.195476874709129,0.195476874709129,-0.417831808328629,70.9609375
0,1,23.648807,1613107345,3858192,1475,24182,336,0,2049.5703125,123.593139648438,-7.12103986740112,-3.84765863418579,14.9120712280273,-0.01588249579072,-0.01588249579072,-0.166155353188515,71.00390625
0,1,23.698818,1613149435,3858870,1817,24189,377,0,2049.53125,123.593139648438,4.87178659439087,2.48375010490417,15.4002065658569,-0.310319542884827,-0.310319542884827,-0.35430184006691,70.9609375
0,1,23.732826,1613191562,3859569,1604,24197,365,0,2049.6875,123.8525390625,-1.9238293170929,-0.368494689464569,6.03469896316528,0.340862780809402,0.340862780809402,1.57236707210541,70.97265625
0,1,23.772986,1613232084,3860292,1801,24205,388,0,2050.1171875,124.636840820313,7.23589611053467,-5.90070009231567,7.56610536575317,-0.140499010682106,-0.140499010682106,-0.700051546096802,70.92578125
0,1,23.816996,1613275186,3861037,1762,24213,387,0,2049.3359375,123.495483398438,-3.27338123321533,-1.55054903030396,10.1120691299438,-0.04764748737216,-0.04764748737216,-0.559552550315857,70.98046875
0,1,23.87901,1613322024,3861846,1666,24222,372,0,2049.21875,123.092651367188,8.73380279541016,4.9770712852478,12.5527477264404,0.0378736443817616,0.0378736443817616,0.109955742955208,71.00390625
0,1,23.906016,1613365185,3862585,1730,24230,390,0,2049.453125,123.37646484375,-13.5529470443726,0.0478564538061619,7.63310384750366,0.100181899964809,0.100181899964809,-0.307876080274582,70.98046875
0,1,23.961013,1613407398,3863283,1628,24238,362,0,2049.609375,123.562622070313,21.8081855773926,-0.435493737459183,15.6729888916016,0.0232128798961639,0.0232128798961639,-0.433714330196381,71.03515625
0,1,24.012036,1613448073,3863973,1636,24245,369,0,2049.3359375,123.7060546875,0.248853549361229,0.483350187540054,5.1110692024231,-0.00855211354792118,-0.00855211354792118,-0.173485726118088,71.078125
0,1,24.089092,1613490170,3864657,1690,24253,349,0,2046.8359375,123.617553710938,-3.4648072719574,-0.894915699958801,1.68933284282684,-0.171042263507843,-0.171042263507843,-0.0794124826788902,70.96484375
0,1,24.147105,1613530886,3865319,1553,24260,340,0,2049.17944335938,123.440551757813,-7.4943208694458,-2.12961220741272,12.5048913955688,-0.124616511166096,-0.124616511166096,-0.438601225614548,71.12109375
0,1,24.150106,1613571504,3865970,1737,24267,350,0,2048.75,123.294067382813,-9.40857887268066,-1.44526493549347,5.68534660339355,-0.04764748737216,-0.04764748737216,-0.134390354156494,71.11328125
0,1,24.155106,1613613733,3866642,1519,24274,370,0,2049.453125,123.355102539063,11.1409816741943,4.8335018157959,11.9258289337158,-0.372627794742584,-0.372627794742584,-0.182037845253944,71.1171875
0,1,24.197116,1613656054,3867355,1798,24282,383,0,2049.609375,122.811889648438,-9.45643520355225,-4.15872573852539,22.3585357666016,-0.333532422780991,-0.333532422780991,0.259006857872009,70.9453125
0,1,24.238126,1613696509,3868026,1618,24289,374,0,2049.453125,121.10595703125,-8.40359401702881,-1.9812570810318,14.2660083770752,0.689055979251862,0.689055979251862,0.0855211317539215,71.0859375
0,1,24.280137,1613738842,3868757,1673,24297,377,0,2049.0625,121.310424804688,-14.7541446685791,2.71346092224121,1.08155596256256,-0.124616511166096,-0.124616511166096,-0.511905074119568,71.1484375
0,1,24.333147,1613784673,3869507,1730,24306,382,0,2049.296875,122.65625,9.61914730072021,-6.905686378479,9.08794021606445,0.0464257597923279,0.0464257597923279,-0.283441454172134,71.078125
0,1,24.406167,1613826313,3870201,1628,24313,375,0,2049.609375,121.722412109375,9.17408180236816,0.5599205493927,16.5439758300781,0.394618928432465,0.394618928432465,-0.189368218183517,71.16015625
0,1,24.410165,1613868832,3870921,1768,24321,380,0,2049.4921875,121.05712890625,10.7964162826538,6.34098052978516,9.09751129150391,0.201585531234741,0.201585531234741,-0.558330833911896,71.125
0,1,24.453174,1613908948,3871587,1621,24329,362,0,2050.1171875,122.607421875,-8.98744106292725,3.64187622070313,12.6197462081909,0.0305432621389627,0.0305432621389627,-0.125838235020638,71.140625
0,1,24.499186,1613951388,3872329,1727,24337,385,0,2049.296875,125.006103515625,-4.36450815200806,-8.27438068389893,7.53739166259766,0.278554528951645,0.278554528951645,0.0623082555830479,71.15625
0,1,24.538431,1613993544,3873044,1731,24344,356,0,2049.5703125,124.832153320313,-1.02891373634338,-2.74696040153503,3.54137754440308,0.0696386322379112,0.0696386322379112,-0.141720727086067,71.171875
0,1,24.579455,1614036346,3873783,1676,24352,390,0,2053.125,123.544311523438,24.8470706939697,0.282353043556213,14.3186511993408,0.185703039169312,0.185703039169312,-0.212581098079681,71.171875
0,1,24.619452,1614077923,3874499,1790,24360,392,0,2052.4609375,123.54736328125,7.31725215911865,7.23111009597778,5.59441900253296,0.0696386322379112,0.0696386322379112,-0.237015709280968,71.125
0,1,24.677482,1614121969,3875239,1644,24368,381,0,2052.65625,123.486328125,-12.5001058578491,2.99102830886841,5.30249452590942,0.271224141120911,0.271224141120911,-0.307876080274582,71.171875
0,1,24.706545,1614165632,3875999,1693,24377,385,0,2052.85131835938,123.541259765625,4.05822706222534,-1.88075852394104,6.23091077804565,-0.01588249579072,-0.01588249579072,-0.362853944301605,71.22265625
0,1,24.759577,1614208086,3876724,1824,24385,366,0,2052.5,123.532104492188,-4.35972261428833,-4.87657260894775,6.77647352218628,0.348193168640137,0.348193168640137,0.0464257597923279,71.2421875
0,1,24.799567,1614251643,3877473,1654,24393,375,0,2053.0078125,123.53515625,-1.46440744400024,6.44147920608521,10.3369932174683,-0.138055548071861,-0.138055548071861,-0.519235491752625,71.22265625
0,1,24.844576,1614293908,3878200,1713,24401,380,0,2053.125,123.663330078125,-9.37507915496826,0.0526420958340168,11.2175540924072,0.0842994004487991,0.0842994004487991,-0.519235491752625,71.234375
0,1,24.881587,1614335990,3878878,1599,24409,369,0,2052.96875,123.654174804688,-5.96291446685791,-1.14376926422119,5.28813791275024,0,0,-0.425162196159363,71.23046875
0,1,24.94362,1614377443,3879599,1660,24417,355,0,2052.890625,123.635864257813,3.0149564743042,-2.5986053943634,7.35075092315674,-0.0623082555830479,-0.0623082555830479,-0.228463590145111,71.27734375
0,1,24.960623,1614419507,3880290,1782,24424,363,0,2052.890625,123.486328125,4.02951335906982,-1.78025996685028,5.28813791275024,0.00733038270846009,0.00733038270846009,-0.196698606014252,72.33984375
0,1,25.001632,1614460514,3880993,1642,24432,371,0,2053.0078125,123.406982421875,-1.93818628787994,0.526420950889587,12.1842527389526,-0.0549778714776039,-0.0549778714776039,-0.221133202314377,71.31640625
0,1,25.085647,1614502595,3881718,1819,24440,395,0,2053.125,123.684692382813,-7.14975452423096,-0.277567446231842,5.18763971328735,-0.00855211354792118,-0.00855211354792118,-0.283441454172134,71.2890625
0,1,25.119376,1614542824,3882403,1664,24448,380,0,2052.9296875,123.626708984375,5.85762977600098,2.46939301490784,8.00638484954834,0.201585531234741,0.201585531234741,-0.125838235020638,71.26953125
0,1,25.138379,1614584029,3883119,1696,24456,374,0,2052.3046875,123.431396484375,2.48375010490417,-0.947557806968689,7.36032247543335,-0.00855211354792118,-0.00855211354792118,-0.35430184006691,71.27734375
0,1,25.199394,1614626244,3883822,1688,24463,364,0,2052.5390625,123.434448242188,-4.9770712852478,0.478564500808716,10.0881395339966,-0.0390953756868839,-0.0390953756868839,-0.299323976039886,71.19921875
0,1,25.213397,1614668298,3884531,1634,24471,357,0,2052.9296875,123.483276367188,-1.54097783565521,-2.92402935028076,10.2173528671265,0.208915904164314,0.208915904164314,-0.166155353188515,71.32421875
0,1,25.260407,1614717240,3885334,1663,24480,349,0,2053.0078125,123.54736328125,1.73718917369843,6.8386869430542,8.48973560333252,-0.298102229833603,-0.298102229833603,-0.0244346093386412,71.390625
0,1,25.306634,1614759442,3885998,1539,24487,335,0,2052.5,123.5107421875,-7.53260564804077,2.47417879104614,14.1511535644531,-0.0549778714776039,-0.0549778714776039,-0.205250710248947,71.3984375
0,1,25.35063,1614801974,3886717,1668,24494,371,0,2052.5,123.5107421875,5.10149812698364,-2.19661140441895,6.89132976531982,-0.03176499158144,-0.03176499158144,-0.283441454172134,71.46484375
