command_auxdaq_sdwrite,flag_auxdaq_sdwrite,time_internal_seconds,time_auxdaq_us,position_engine_ticks,speed_engine_rpm,position_secondary_ticks,speed_secondary_rpm,pressure_frontbrake_psi,pressure_rearbrake_psi,lds_pedal_mm,imu_acceleration_x,imu_acceleration_y,imu_acceleration_z,imu_gyro_x,imu_gyro_y,imu_gyro_z,imu_temperature
0,1,0.767921,1870784501,8877534,1701,68566,0,311.601593017578,2052.65625,126.3427734375,0,0,0,0,0,0,25
0,1,0.81293,1870832693,8878354,1711,68566,0,311.601593017578,2052.34350585938,126.33056640625,0,0,0,0,0,0,25
0,1,0.886961,1870875676,8879095,1725,68566,0,311.601593017578,2052.6171875,126.327514648438,0,0,0,0,0,0,25
0,1,0.900964,1870918138,8879810,1676,68566,0,311.484344482422,2052.6171875,126.321411132813,0,0,0,0,0,0,25
0,1,0.944978,1870959643,8880521,1655,68566,0,311.5234375,2052.6171875,126.324462890625,0,0,0,0,0,0,25
0,1,0.985988,1871000974,8881243,1800,68566,0,312.578155517578,2052.3828125,126.315307617188,0,0,0,0,0,0,25
0,1,1.026997,1871041176,8881941,1716,68566,0,310.7421875,2049.0234375,126.144409179688,0,0,0,0,0,0,25
0,1,1.064007,1871082471,8882650,1735,68566,0,309.648468017578,2049.375,126.162719726563,0,0,0,0,0,0,25
0,1,1.110016,1871125241,8883375,1702,68566,0,310.78125,2048.828125,126.141357421875,0,0,0,0,0,0,25
0,1,1.184045,1871167848,8884115,1683,68566,0,310.8984375,2049.21875,126.153564453125,0,0,0,0,0,0,25
0,1,1.214036,1871208895,8884825,1780,68566,0,311.953125,2049.0234375,126.1474609375,0,0,0,0,0,0,25
0,1,1.233041,1871250804,8885550,1729,68566,0,309.5703125,2049.375,126.153564453125,0,0,0,0,0,0,25
0,1,1.27405,1871293655,8886297,1746,68566,0,310.859375,2049.0234375,126.150512695313,0,0,0,0,0,0,25
0,1,1.321059,1871335704,8887018,1712,68566,0,310.7421875,2049.3359375,126.15966796875,0,0,0,0,0,0,25
0,1,1.366072,1871378592,8887766,1690,68566,0,310.7421875,2049.1015625,126.150512695313,0,0,0,0,0,0,25
0,1,1.44809,1871420687,8888498,1786,68566,0,309.609344482422,2049.1015625,126.144409179688,0,0,0,0,0,0,25
0,1,1.452106,1871463578,8889232,1706,68566,0,310.7421875,2049.296875,126.1474609375,0,0,0,0,0,0,25
0,1,1.490118,1871505885,8889956,1696,68566,0,310.7421875,2049.1015625,126.1474609375,0,0,0,0,0,0,25
0,1,1.535127,1871548906,8890672,1654,68566,0,309.609344482422,2049.17944335938,126.1474609375,0,0,0,0,0,0,25
0,1,1.592142,1871591136,8891381,1632,68566,0,309.648468017578,2049.453125,126.15966796875,0,0,0,0,0,0,25
0,1,1.615129,1871636273,8892165,1774,68566,0,309.648468017578,2049.2578125,126.156616210938,0,0,0,0,0,0,25
0,1,1.66414,1871677633,8892874,1733,68566,0,310.7421875,2049.0625,126.156616210938,0,0,0,0,0,0,25
0,1,1.713169,1871720566,8893624,1716,68566,0,312.0703125,2049.2578125,126.162719726563,0,0,0,0,0,0,25
0,1,1.746177,1871763713,8894364,1741,68566,0,311.992156982422,2049.140625,126.15966796875,0,0,0,0,0,0,25
0,1,1.793324,1871804264,8895063,1705,68566,0,312.031219482422,2049.41381835938,126.165771484375,0,0,0,0,0,0,25
0,1,1.831313,1871846973,8895809,1774,68566,0,311.992156982422,2049.2578125,126.153564453125,0,0,0,0,0,0,25
0,1,1.89633,1871887811,8896517,1756,68566,0,313.1640625,2049.296875,126.1474609375,0,0,0,0,0,0,25
0,1,1.914335,1871930380,8897272,1735,68566,0,311.914031982422,2049.41381835938,126.156616210938,0,0,0,0,0,0,25
0,1,1.962344,1871972630,8898000,1742,68566,0,311.914031982422,2048.94506835938,126.153564453125,0,0,0,0,0,0,25
0,1,1.994351,1872013393,8898700,1724,68566,0,312.6171875,2051.9921875,126.300048828125,0,0,0,0,0,0,25
0,1,2.043363,1872054304,8899418,1776,68566,0,311.640625,2052.421875,126.324462890625,0,0,0,0,0,0,25
0,1,2.080371,1872094926,8900111,1688,68566,0,311.601593017578,2052.421875,126.324462890625,0,0,0,0,0,0,25
0,1,2.125399,1872137660,8900838,1665,68566,0,311.484344482422,2053.4765625,126.318359375,0,0,0,0,0,0,25
0,1,2.172394,1872180162,8901563,1740,68566,0,312.773406982422,2052.3046875,126.318359375,0,0,0,0,0,0,25
0,1,2.200411,1872221191,8902271,1707,68566,0,312.6953125,2052.4609375,126.321411132813,0,0,0,0,0,0,25
0,1,2.242423,1872263057,8903001,1772,68566,0,312.773406982422,2052.890625,126.333618164063,0,0,0,0,0,0,25
0,1,2.283435,1872303334,8903688,1702,68566,0,312.734375,2052.6953125,126.318359375,0,0,0,0,0,0,25
0,1,2.326427,1872344085,8904389,1695,68566,0,311.445281982422,2052.421875,126.321411132813,0,0,0,0,0,0,25
0,1,2.367435,1872386767,8905116,1717,68566,0,312.656219482422,2052.4609375,126.321411132813,0,0,0,0,0,0,25
0,1,2.410474,1872431251,8905885,1709,68566,0,311.484344482422,2052.3828125,126.318359375,0,0,0,0,0,0,25
0,1,2.479459,1872472010,8906594,1770,68566,0,312.6953125,2052.6171875,126.318359375,0,0,0,0,0,0,25
0,1,2.498464,1872514351,8907320,1727,68566,0,311.601593017578,2052.4609375,126.324462890625,0,0,0,0,0,0,25
0,1,2.542489,1872557941,8908082,1705,68566,0,310.3125,2052.81225585938,126.33056640625,0,0,0,0,0,0,25
0,1,2.590486,1872600398,8908813,1760,68566,0,312.773406982422,2052.6953125,126.327514648438,0,0,0,0,0,0,25
0,1,2.632497,1872643242,8909551,1739,68566,0,311.445281982422,2052.1875,126.303100585938,0,0,0,0,0,0,25
0,1,2.669504,1872684294,8910271,1761,68566,0,310.234375,2052.421875,126.315307617188,0,0,0,0,0,0,25
0,1,2.714516,1872727359,8911002,1675,68566,0,310.3125,2052.5390625,126.333618164063,0,0,0,0,0,0,25
0,1,2.796547,1872769179,8911714,1647,68566,0,311.562469482422,2052.2265625,126.30615234375,0,0,0,0,0,0,25
0,1,2.799547,1872811301,8912434,1756,68566,0,312.6953125,2052.2265625,126.321411132813,0,0,0,0,0,0,25
0,1,2.839543,1872853758,8913157,1720,68566,0,310.390594482422,2052.3828125,126.324462890625,0,0,0,0,0,0,25
0,1,2.883566,1872895809,8913886,1735,68567,72,310.507781982422,2052.4609375,126.336669921875,0,0,0,0,0,0,25
0,1,2.917581,1872938499,8914609,1691,68567,28,311.5234375,2052.734375,126.33056640625,0,0,0,0,0,0,25
0,1,2.960184,1872981379,8915348,1667,68567,17,310.4296875,2052.3046875,126.327514648438,0,0,0,0,0,0,25
0,1,3.004213,1873022753,8916071,1800,68567,12,310.820281982422,2049.375,126.15966796875,0,0,0,0,0,0,25
0,1,3.042222,1873063185,8916771,1723,68567,10,309.5703125,2049.375,126.156616210938,0,0,0,0,0,0,25
0,1,3.102348,1873110254,8917583,1706,68567,8,309.531219482422,2049.0625,126.1474609375,0,0,0,0,0,0,25
0,1,3.13836,1873151367,8918281,1701,68567,7,309.531219482422,2048.984375,126.162719726563,0,0,0,0,0,0,25
0,1,3.178347,1873193991,8919017,1673,68567,6,309.765625,2049.21875,126.156616210938,0,0,0,0,0,0,25
0,1,3.216374,1873235276,8919719,1746,68567,5,309.609344482422,2049.21875,126.153564453125,0,0,0,0,0,0,25
0,1,3.264366,1873277826,8920435,1707,68567,4,310.703094482422,2049.1015625,126.156616210938,0,0,0,0,0,0,25
0,1,3.298373,1873319049,8921146,1712,68567,4,311.953125,2049.3359375,126.153564453125,0,0,0,0,0,0,25
0,1,3.340401,1873360120,8921840,1688,68567,4,310.7421875,2049.0234375,126.153564453125,0,0,0,0,0,0,25
0,1,3.4204,1873403149,8922582,1666,68567,3,309.648468017578,2049.53125,126.165771484375,0,0,0,0,0,0,25
0,1,3.425403,1873446058,8923327,1789,68567,3,309.6875,2049.3359375,126.156616210938,0,0,0,0,0,0,25
0,1,3.468413,1873489240,8924070,1735,68567,3,310.859375,2049.21875,126.168823242188,0,0,0,0,0,0,25
0,1,3.524444,1873531365,8924809,1728,68567,3,310.78125,2049.0625,126.168823242188,0,0,0,0,0,0,25
0,1,3.570455,1873574437,8925553,1755,68567,2,310.703094482422,2048.984375,126.156616210938,0,0,0,0,0,0,25
0,1,3.602462,1873616576,8926288,1714,68567,2,310.78125,2049.17944335938,126.165771484375,0,0,0,0,0,0,25
0,1,3.66548,1873685566,8927471,1705,68567,2,310.7421875,2049.17944335938,126.150512695313,0,0,0,0,0,0,25
0,1,3.738492,1873752110,8928619,1684,68567,2,310.820281982422,2048.75,126.150512695313,0,0,0,0,0,0,25
0,1,3.7735,1873793707,8929332,1754,68567,2,309.5703125,2049.21875,126.153564453125,0,0,0,0,0,0,25
0,1,3.826512,1873836480,8930059,1730,68567,2,310.703094482422,2048.984375,126.162719726563,0,0,0,0,0,0,25
0,1,3.859521,1873876728,8930761,1730,68567,1,310.859375,2048.90600585938,126.162719726563,0,0,0,0,0,0,25
0,1,3.897533,1873917884,8931469,1721,68567,1,309.5703125,2049.53125,126.15966796875,0,0,0,0,0,0,25
0,1,3.944571,1873959959,8932205,1702,68567,1,309.648468017578,2049.21875,126.168823242188,0,0,0,0,0,0,25
0,1,3.985665,1874000481,8932915,1795,68567,1,309.531219482422,2049.17944335938,126.153564453125,0,0,0,0,0,0,25
0,1,4.059682,1874043229,8933652,1722,68567,1,311.5234375,2052.734375,126.327514648438,0,0,0,0,0,0,25
0,1,4.066684,1874087723,8934423,1703,68567,1,311.5234375,2052.3046875,126.33056640625,0,0,0,0,0,0,25
0,1,4.114699,1874130392,8935140,1686,68567,1,311.484344482422,2052.34350585938,126.339721679688,0,0,0,0,0,0,25
0,1,4.159705,1874171057,8935825,1644,68567,1,310.273406982422,2052.3046875,126.321411132813,0,0,0,0,0,0,25
0,1,4.203717,1874211207,8936496,1717,68567,1,310.234375,2051.7578125,126.309204101563,0,0,0,0,0,0,25
0,1,4.235703,1874254146,8937213,1733,68567,1,311.484344482422,2052.57788085938,126.336669921875,0,0,0,0,0,0,25
0,1,4.287715,1874296853,8937956,1726,68567,1,311.562469482422,2052.65625,126.336669921875,0,0,0,0,0,0,25
0,1,4.371738,1874337849,8938667,1741,68567,1,310.390594482422,2052.5390625,126.339721679688,0,0,0,0,0,0,25
0,1,4.374735,1874380458,8939422,1727,68567,1,310.3125,2052.4609375,126.3427734375,0,0,0,0,0,0,25
0,1,4.412743,1874427399,8940250,1780,68567,1,310.3125,2051.9921875,126.318359375,0,0,0,0,0,0,25
0,1,4.457755,1874471050,8941006,1726,68567,1,310.4296875,2052.85131835938,126.348876953125,0,0,0,0,0,0,25
0,1,4.511776,1874514032,8941760,1706,68567,1,310.390594482422,2052.3828125,126.336669921875,0,0,0,0,0,0,25
0,1,4.540786,1874554787,8942467,1771,68567,1,310.390594482422,2052.3828125,126.333618164063,0,0,0,0,0,0,25
0,1,4.576788,1874597809,8943203,1712,68567,1,310.390594482422,2052.3828125,126.33056640625,0,0,0,0,0,0,25
0,1,4.661826,1874639012,8943910,1708,68567,1,310.390594482422,2052.9296875,126.3427734375,0,0,0,0,0,0,25
0,1,4.66581,1874682375,8944639,1674,68567,1,310.3515625,2053.0078125,126.339721679688,0,0,0,0,0,0,25
0,1,4.706816,1874724506,8945356,1646,68567,1,311.5234375,2052.34350585938,126.345825195313,0,0,0,0,0,0,25
0,1,4.752828,1874766087,8946074,1776,68567,1,310.3515625,2052.65625,126.339721679688,0,0,0,0,0,0,25
0,1,4.800841,1874806910,8946775,1747,68567,1,310.390594482422,2052.6953125,126.339721679688,0,0,0,0,0,0,25
0,1,4.831848,1874849830,8947529,1751,68567,1,311.484344482422,2052.421875,126.339721679688,0,0,0,0,0,0,25
0,1,4.877152,1874891330,8948244,1718,68567,0,310.3125,2052.3828125,126.327514648438,0,0,0,0,0,0,25
0,1,4.911167,1874931505,8948948,1696,68567,0,311.562469482422,2052.5390625,126.333618164063,0,0,0,0,0,0,25
0,1,4.971172,1874973085,8949674,1794,68567,0,311.562469482422,2052.65625,126.339721679688,0,0,0,0,0,0,25
0,1,4.999173,1875014714,8950391,1717,68567,0,309.609344482422,2049.17944335938,126.174926757813,0,0,0,0,0,0,25
0,1,5.039244,1875057505,8951126,1710,68567,0,310.859375,2049.2578125,126.174926757813,0,0,0,0,0,0,25
0,1,5.080242,1875100356,8951853,1696,68567,0,309.5703125,2049.453125,126.171875,0,0,0,0,0,0,25
0,1,5.124264,1875141685,8952568,1673,68567,0,310.8984375,2048.984375,126.177978515625,0,0,0,0,0,0,25
0,1,5.167275,1875182353,8953263,1754,68567,0,310.820281982422,2049.453125,126.168823242188,0,0,0,0,0,0,25
0,1,5.202267,1875222562,8953946,1735,68567,0,309.531219482422,2049.0625,126.165771484375,0,0,0,0,0,0,25
0,1,5.260279,1875265287,8954694,1753,68567,0,309.648468017578,2049.0625,126.171875,0,0,0,0,0,0,25
0,1,5.287802,1875307960,8955426,1710,68567,0,309.609344482422,2049.1015625,126.165771484375,0,0,0,0,0,0,25
0,1,5.333812,1875348883,8956140,1691,68567,0,310.78125,2049.3359375,126.171875,0,0,0,0,0,0,25
0,1,5.380824,1875391661,8956889,1800,68567,0,310.859375,2049.5703125,126.171875,0,0,0,0,0,0,25
0,1,5.417851,1875432984,8957606,1750,68567,0,309.453125,2048.6328125,126.144409179688,0,0,0,0,0,0,25
0,1,5.455948,1875473673,8958322,1752,68567,0,309.726531982422,2049.296875,126.165771484375,0,0,0,0,0,0,25
0,1,5.50096,1875516535,8959051,1680,68567,0,309.5703125,2049.453125,126.165771484375,0,0,0,0,0,0,25
0,1,5.566969,1875560297,8959796,1652,68567,0,309.609344482422,2049.453125,126.171875,0,0,0,0,0,0,25
0,1,5.58296,1875603062,8960513,1718,68567,0,309.6875,2049.140625,126.174926757813,0,0,0,0,0,0,25
0,1,5.627988,1875645291,8961218,1720,68567,0,309.648468017578,2049.0625,126.168823242188,0,0,0,0,0,0,25
0,1,5.675998,1875688743,8961967,1703,68567,0,310.78125,2049.3359375,126.165771484375,0,0,0,0,0,0,25
0,1,5.713008,1875730437,8962684,1730,68567,0,309.531219482422,2049.21875,126.165771484375,0,0,0,0,0,0,25
0,1,5.75986,1875773321,8963436,1711,68567,0,309.492156982422,2049.140625,126.168823242188,0,0,0,0,0,0,25
0,1,5.798851,1875815206,8964165,1777,68567,0,309.609344482422,2049.0625,126.165771484375,0,0,0,0,0,0,25
0,1,5.866958,1875857976,8964898,1722,68567,0,309.531219482422,2049.140625,126.165771484375,0,0,0,0,0,0,25
0,1,5.884945,1875905349,8965720,1688,68567,0,309.609344482422,2049.0234375,126.165771484375,0,0,0,0,0,0,25
0,1,5.926955,1875947948,8966455,1777,68567,0,309.5703125,2049.21875,126.168823242188,0,0,0,0,0,0,25
0,1,5.975985,1875990157,8967177,1703,68567,0,309.5703125,2049.5703125,126.177978515625,0,0,0,0,0,0,25
0,1,6.01599,1876032528,8967901,1709,68567,0,310.234375,2052.3046875,126.309204101563,0,0,0,0,0,0,25
0,1,6.061987,1876075246,8968624,1696,68567,0,310.390594482422,2052.3046875,126.3427734375,0,0,0,0,0,0,25
0,1,6.103012,1876118124,8969368,1678,68567,0,311.562469482422,2052.6171875,126.3427734375,0,0,0,0,0,0,25
0,1,6.172021,1876161718,8970127,1791,68567,0,310.507781982422,2052.421875,126.3427734375,0,0,0,0,0,0,25
0,1,6.186028,1876202215,8970827,1749,68567,0,310.4296875,2052.421875,126.3427734375,0,0,0,0,0,0,25
0,1,6.227042,1876248098,8971633,1727,68567,0,310.3125,2052.4609375,126.339721679688,0,0,0,0,0,0,25
0,1,6.27806,1876289221,8972333,1703,68567,0,310.3515625,2052.6171875,126.3427734375,0,0,0,0,0,0,25
0,1,6.311066,1876331942,8973061,1669,68567,0,310.4296875,2052.34350585938,126.3427734375,0,0,0,0,0,0,25
0,1,6.356077,1876373056,8973751,1716,68567,0,310.4296875,2052.5390625,126.336669921875,0,0,0,0,0,0,25
0,1,6.400105,1876415524,8974449,1653,68567,0,310.4296875,2052.65625,126.345825195313,0,0,0,0,0,0,25
0,1,6.471124,1876456435,8975133,1656,68567,0,311.601593017578,2052.3828125,126.3427734375,0,0,0,0,0,0,25
0,1,6.477121,1876498129,8975831,1694,68567,0,310.3515625,2052.6953125,126.3427734375,0,0,0,0,0,0,25
0,1,6.525132,1876541010,8976575,1678,68567,0,310.390594482422,2052.85131835938,126.345825195313,0,0,0,0,0,0,25
0,1,6.571141,1876583660,8977326,1815,68567,0,310.273406982422,2052.4609375,126.339721679688,0,0,0,0,0,0,25
0,1,6.606206,1876624456,8978036,1750,68567,0,310.3515625,2052.10913085938,126.315307617188,0,0,0,0,0,0,25
0,1,6.651299,1876666339,8978777,1751,68567,0,310.390594482422,2052.9296875,126.339721679688,0,0,0,0,0,0,25
0,1,6.693316,1876710048,8979530,1728,68567,0,310.1953125,2052.3046875,126.321411132813,0,0,0,0,0,0,25
0,1,6.768345,1876750821,8980238,1712,68567,0,311.562469482422,2052.3828125,126.339721679688,0,0,0,0,0,0,25
0,1,6.772346,1876793403,8980989,1793,68567,0,310.390594482422,2052.265625,126.3427734375,0,0,0,0,0,0,25
0,1,6.814364,1876833532,8981681,1712,68567,0,311.640625,2052.5,126.351928710938,0,0,0,0,0,0,25
0,1,6.866348,1876876138,8982413,1690,68567,0,310.4296875,2052.85131835938,126.35498046875,0,0,0,0,0,0,25
0,1,6.917361,1876918124,8983113,1655,68567,0,310.390594482422,2052.734375,126.348876953125,0,0,0,0,0,0,25
0,1,6.954368,1876960814,8983824,1633,68567,0,310.3125,2052.1484375,126.33056640625,0,0,0,0,0,0,25
0,1,6.987378,1877002964,8984534,1723,68567,0,310.390594482422,2052.4609375,126.339721679688,0,0,0,0,0,0,25
0,1,7.031386,1877045524,8985247,1729,68567,0,310.7421875,2048.984375,126.162719726563,0,0,0,0,0,0,25
0,1,7.107401,1877086886,8985966,1720,68567,0,310.78125,2049.21875,126.187133789063,0,0,0,0,0,0,25
0,1,7.110401,1877129479,8986699,1731,68567,0,309.531219482422,2049.296875,126.171875,0,0,0,0,0,0,25
0,1,7.151431,1877169677,8987402,1701,68567,0,309.5703125,2048.94506835938,126.165771484375,0,0,0,0,0,0,25
0,1,7.200445,1877212034,8988147,1802,68567,0,308.554656982422,2049.0234375,126.171875,0,0,0,0,0,0,25
0,1,7.245016,1877254303,8988876,1714,68567,0,309.5703125,2049.140625,126.171875,0,0,0,0,0,0,25
0,1,7.283004,1877296431,8989606,1707,68567,0,309.101531982422,2048.8671875,126.15966796875,0,0,0,0,0,0,25
0,1,7.318013,1877338465,8990318,1700,68567,0,309.648468017578,2049.0234375,126.168823242188,0,0,0,0,0,0,25
0,1,7.412032,1877381035,8991046,1680,68567,0,309.6875,2049.0625,126.168823242188,0,0,0,0,0,0,25
0,1,7.414034,1877421057,8991735,1764,68567,0,308.437469482422,2049.453125,126.181030273438,0,0,0,0,0,0,25
0,1,7.44206,1877461693,8992423,1701,68567,0,309.609344482422,2049.2578125,126.171875,0,0,0,0,0,0,25
0,1,7.483048,1877504013,8993147,1695,68567,0,309.5703125,2049.140625,126.171875,0,0,0,0,0,0,25
0,1,7.536064,1877545662,8993856,1710,68567,0,309.5703125,2049.4921875,126.171875,0,0,0,0,0,0,25
0,1,7.573207,1877587971,8994594,1691,68567,0,309.609344482422,2048.94506835938,126.168823242188,0,0,0,0,0,0,25
0,1,7.608151,1877629059,8995319,1815,68567,0,308.4765625,2048.984375,126.15966796875,0,0,0,0,0,0,25
0,1,7.64914,1877669228,8996015,1718,68567,0,309.609344482422,2049.2578125,126.171875,0,0,0,0,0,0,25
0,1,7.723176,1877712784,8996765,1706,68567,0,309.5703125,2049.4921875,126.171875,0,0,0,0,0,0,25
0,1,7.739179,1877756670,8997516,1728,68567,0,309.5703125,2049.140625,126.165771484375,0,0,0,0,0,0,25
0,1,7.781173,1877799157,8998255,1704,68567,0,309.609344482422,2049.2578125,126.168823242188,0,0,0,0,0,0,25
0,1,7.8292,1877841405,8998987,1765,68567,0,309.648468017578,2049.0625,126.181030273438,0,0,0,0,0,0,25
0,1,7.861208,1877881430,8999665,1694,68567,0,309.609344482422,2048.828125,126.153564453125,0,0,0,0,0,0,25
0,1,7.907197,1877923185,9000379,1688,68567,0,309.648468017578,2049.453125,126.181030273438,0,0,0,0,0,0,25
0,1,7.953224,1877963632,9001067,1706,68567,0,309.5703125,2049.296875,126.171875,0,0,0,0,0,0,25
0,1,8.033242,1878005403,9001793,1687,68567,0,311.562469482422,2052.421875,126.345825195313,0,0,0,0,0,0,25
0,1,8.035249,1878047913,9002536,1794,68567,0,310.390594482422,2052.421875,126.351928710938,0,0,0,0,0,0,25
0,1,8.071255,1878088762,9003235,1695,68567,0,311.484344482422,2051.9921875,126.333618164063,0,0,0,0,0,0,25
0,1,8.120266,1878129939,9003937,1694,68567,0,311.601593017578,2052.4609375,126.351928710938,0,0,0,0,0,0,25
0,1,8.188281,1878171014,9004619,1652,68567,0,310.3515625,2052.81225585938,126.351928710938,0,0,0,0,0,0,25
0,1,8.238293,1878214578,9005356,1631,68567,0,310.273406982422,2052.2265625,126.333618164063,0,0,0,0,0,0,25
0,1,8.259278,1878256833,9006095,1813,68567,0,310.273406982422,2051.953125,126.321411132813,0,0,0,0,0,0,25
0,1,8.325294,1878299403,9006842,1785,68567,0,310.3515625,2052.1875,126.339721679688,0,0,0,0,0,0,25
0,1,8.341314,1878342718,9007622,1778,68567,0,310.234375,2052.3828125,126.333618164063,0,0,0,0,0,0,25
0,1,8.367323,1878384812,9008363,1775,68567,0,310.390594482422,2052.421875,126.348876953125,0,0,0,0,0,0,25
0,1,8.405316,1878426473,9009100,1749,68567,0,310.390594482422,2052.3046875,126.345825195313,0,0,0,0,0,0,25
0,1,8.446342,1878466829,9009807,1776,68567,0,310.3125,2052.6953125,126.3427734375,0,0,0,0,0,0,25
0,1,8.490803,1878509151,9010537,1722,68567,0,310.4296875,2052.3046875,126.345825195313,0,0,0,0,0,0,25
0,1,8.536003,1878553885,9011312,1690,68567,0,310.3125,2052.1875,126.345825195313,0,0,0,0,0,0,25
0,1,8.594003,1878596138,9012037,1744,68567,0,310.3125,2052.10913085938,126.333618164063,0,0,0,0,0,0,25
0,1,8.64001,1878638783,9012764,1727,68567,0,309.21875,2052.6171875,126.3427734375,0,0,0,0,0,0,25
0,1,8.662016,1878681488,9013502,1721,68567,0,310.3125,2052.2265625,126.3427734375,0,0,0,0,0,0,25
0,1,8.707025,1878721719,9014178,1666,68567,0,310.390594482422,2052.2265625,126.33056640625,0,0,0,0,0,0,25
0,1,8.759036,1878764234,9014895,1636,68567,0,310.390594482422,2052.1484375,126.339721679688,0,0,0,0,0,0,25
0,1,8.802047,1878806504,9015622,1768,68567,0,311.640625,2052.6953125,126.358032226563,0,0,0,0,0,0,25
0,1,8.83706,1878848772,9016349,1735,68567,0,310.3515625,2052.3046875,126.3427734375,0,0,0,0,0,0,25
0,1,8.876066,1878895393,9017165,1734,68567,0,310.3515625,2052.03125,126.318359375,0,0,0,0,0,0,25
0,1,8.924076,1878941104,9017950,1739,68567,0,310.3125,2052.4609375,126.345825195313,0,0,0,0,0,0,25
0,1,9.002092,1878981858,9018654,1695,68567,0,310.4296875,2052.3828125,126.345825195313,0,0,0,0,0,0,25
0,1,9.005092,1879023604,9019377,1768,68567,0,309.609344482422,2048.984375,126.165771484375,0,0,0,0,0,0,25
0,1,9.045101,1879066122,9020101,1711,68567,0,309.648468017578,2049.0234375,126.181030273438,0,0,0,0,0,0,25
0,1,9.097113,1879108519,9020836,1697,68567,0,309.648468017578,2049.1015625,126.174926757813,0,0,0,0,0,0,25
0,1,9.143125,1879163993,9021809,1798,68567,0,309.492156982422,2048.90600585938,126.150512695313,0,0,0,0,0,0,25
0,1,9.192137,1879205881,9022529,1695,68567,0,309.5703125,2049.375,126.181030273438,0,0,0,0,0,0,25
0,1,9.233144,1879246304,9023224,1686,68567,0,309.5703125,2049.1015625,126.171875,0,0,0,0,0,0,25
0,1,9.320167,1879287867,9023920,1681,68567,0,309.531219482422,2049.0234375,126.165771484375,0,0,0,0,0,0,25
0,1,9.323166,1879330321,9024638,1673,68567,0,309.5703125,2049.0625,126.177978515625,0,0,0,0,0,0,25
0,1,9.351722,1879372641,9025378,1785,68567,0,309.648468017578,2049.17944335938,126.181030273438,0,0,0,0,0,0,25
0,1,9.396736,1879415299,9026108,1705,68567,0,309.531219482422,2049.3359375,126.168823242188,0,0,0,0,0,0,25
0,1,9.474754,1879487086,9027348,1738,68567,0,309.609344482422,2049.140625,126.18408203125,0,0,0,0,0,0,25
0,1,9.532769,1879553599,9028513,1722,68567,0,309.5703125,2049.17944335938,126.168823242188,0,0,0,0,0,0,25
0,1,9.6828,1879703494,9031092,1696,68567,0,309.726531982422,2049.17944335938,126.168823242188,0,0,0,0,0,0,25
0,1,9.72581,1879746108,9031821,1667,68567,0,309.609344482422,2049.5703125,126.181030273438,0,0,0,0,0,0,25
0,1,9.779824,1879789342,9032550,1721,68567,0,309.609344482422,2048.984375,126.174926757813,0,0,0,0,0,0,25
0,1,9.81283,1879831811,9033254,1674,68567,0,309.531219482422,2049.2578125,126.174926757813,0,0,0,0,0,0,25
0,1,9.853841,1879874802,9033978,1659,68567,0,309.648468017578,2049.5703125,126.181030273438,0,0,0,0,0,0,25
0,1,9.900866,1879917880,9034707,1717,68567,0,309.609344482422,2049.41381835938,126.181030273438,0,0,0,0,0,0,25
0,1,9.940281,1879960625,9035450,1714,68567,0,309.648468017578,2049.0625,126.177978515625,0,0,0,0,0,0,25
0,1,10.006468,1880002515,9036199,1824,68567,0,309.648468017578,2049.4921875,126.181030273438,0,0,0,0,0,0,25
0,1,10.039471,1880052995,9037085,1753,68567,0,310.4296875,2052.3046875,126.348876953125,0,0,0,0,0,0,25
0,1,10.075464,1880095519,9037842,1742,68567,0,310.4296875,2052.6953125,126.348876953125,0,0,0,0,0,0,25
0,1,10.127475,1880139039,9038617,1806,68567,0,310.390594482422,2052.10913085938,126.336669921875,0,0,0,0,0,0,25
0,1,10.1685,1880180980,9039346,1716,68567,0,310.3515625,2052.6953125,126.351928710938,0,0,0,0,0,0,25
0,1,10.203493,1880221913,9040057,1700,68567,0,310.3125,2052.3046875,126.339721679688,0,0,0,0,0,0,25
0,1,10.243501,1880263601,9040769,1720,68567,0,310.390594482422,2052.421875,126.3427734375,0,0,0,0,0,0,25
0,1,10.302516,1880305972,9041491,1704,68567,0,310.3125,2052.34350585938,126.348876953125,0,0,0,0,0,0,25
0,1,10.356527,1880349226,9042233,1726,68567,0,310.390594482422,2052.265625,126.351928710938,0,0,0,0,0,0,25
0,1,10.375531,1880392521,9042960,1673,68567,0,310.3515625,2052.5390625,126.358032226563,0,0,0,0,0,0,25
0,1,10.412542,1880432817,9043643,1653,68567,0,310.3125,2052.5,126.345825195313,0,0,0,0,0,0,25
0,1,10.467578,1880476176,9044383,1740,68567,0,311.484344482422,2052.265625,126.3427734375,0,0,0,0,0,0,25
0,1,10.506585,1880519596,9045128,1733,68567,0,310.390594482422,2052.1875,126.3427734375,0,0,0,0,0,0,25
0,1,10.542592,1880563079,9045888,1750,68567,0,309.296844482422,2052.421875,126.345825195313,0,0,0,0,0,0,25
0,1,10.590603,1880606379,9046631,1711,68567,0,309.3359375,2052.96875,126.35498046875,0,0,0,0,0,0,25
0,1,10.627629,1880647594,9047350,1690,68567,0,310.3125,2052.2265625,126.348876953125,0,0,0,0,0,0,25
0,1,10.70463,1880690977,9048099,1774,68567,0,310.3515625,2052.5,126.339721679688,0,0,0,0,0,0,25
0,1,10.712634,1880732716,9048810,1708,68567,0,310.390594482422,2052.4609375,126.348876953125,0,0,0,0,0,0,25
0,1,10.75664,1880776559,9049563,1698,68567,0,311.484344482422,2052.265625,126.3427734375,0,0,0,0,0,0,25
0,1,10.810653,1880819975,9050287,1662,68567,0,310.390594482422,2052.265625,126.351928710938,0,0,0,0,0,0,25
0,1,10.855663,1880861616,9050988,1637,68567,0,310.390594482422,2052.265625,126.33056640625,0,0,0,0,0,0,25
0,1,10.888057,1880902883,9051701,1782,68567,0,309.21875,2052.1484375,126.336669921875,0,0,0,0,0,0,25
0,1,10.933068,1880946238,9052445,1734,68567,0,310.3125,2052.265625,126.339721679688,0,0,0,0,0,0,25
0,1,10.969078,1880989689,9053205,1726,68567,0,310.3515625,2052.10913085938,126.3427734375,0,0,0,0,0,0,25
0,1,11.044094,1881031402,9053913,1695,68567,0,309.609344482422,2049.0625,126.18408203125,0,0,0,0,0,0,25
0,1,11.060099,1881074877,9054655,1676,68567,0,308.437469482422,2049.0234375,126.177978515625,0,0,0,0,0,0,25
0,1,11.101108,1881116161,9055365,1760,68567,0,308.3984375,2049.17944335938,126.171875,0,0,0,0,0,0,25
0,1,11.149123,1881159425,9056104,1739,68567,0,308.359375,2048.94506835938,126.177978515625,0,0,0,0,0,0,25
0,1,11.186145,1881201375,9056844,1729,68567,0,308.359375,2048.515625,126.141357421875,0,0,0,0,0,0,25
0,1,11.232141,1881246198,9057619,1769,68567,0,308.437469482422,2049.21875,126.181030273438,0,0,0,0,0,0,25
0,1,11.272149,1881287697,9058339,1754,68567,0,307.3046875,2049.4921875,126.181030273438,0,0,0,0,0,0,25
0,1,11.349184,1881333573,9059150,1755,68567,0,307.3046875,2049.17944335938,126.18408203125,0,0,0,0,0,0,25
0,1,11.353184,1881373679,9059844,1724,68567,0,306.132781982422,2049.2578125,126.181030273438,0,0,0,0,0,0,25
0,1,11.396214,1881416726,9060598,1704,68567,0,306.2109375,2049.21875,126.18408203125,0,0,0,0,0,0,25
0,1,11.448207,1881458892,9061328,1769,68567,0,306.171844482422,2049.3359375,126.193237304688,0,0,0,0,0,0,25
0,1,11.48723,1881500612,9062038,1701,68567,0,307.3046875,2049.1015625,126.171875,0,0,0,0,0,0,25
0,1,11.521245,1881541814,9062740,1689,68567,0,307.3828125,2049.296875,126.181030273438,0,0,0,0,0,0,25
0,1,11.575237,1881582603,9063419,1651,68567,0,307.3046875,2049.41381835938,126.181030273438,0,0,0,0,0,0,25
0,1,11.652253,1881625868,9064145,1621,68567,0,308.515594482422,2049.375,126.187133789063,0,0,0,0,0,0,25
0,1,11.655255,1881673554,9064955,1742,68567,0,307.421875,2048.67163085938,126.171875,0,0,0,0,0,0,25
0,1,11.703264,1881715259,9065662,1740,68567,0,308.3984375,2049.17944335938,126.181030273438,0,0,0,0,0,0,25
0,1,11.747273,1881757771,9066409,1731,68567,0,307.3828125,2049.1015625,126.174926757813,0,0,0,0,0,0,25
0,1,11.799287,1881801612,9067172,1779,68567,0,307.3046875,2049.17944335938,126.181030273438,0,0,0,0,0,0,25
0,1,11.846299,1881844957,9067933,1737,68567,0,307.3046875,2049.296875,126.177978515625,0,0,0,0,0,0,25
0,1,11.868302,1881888326,9068692,1755,68567,0,306.054656982422,2049.17944335938,126.174926757813,0,0,0,0,0,0,25
0,1,11.908318,1881929405,9069394,1701,68567,0,306.2109375,2048.90600585938,126.190185546875,0,0,0,0,0,0,25
0,1,11.975346,1881971252,9070121,1684,68567,0,307.343719482422,2048.94506835938,126.18408203125,0,0,0,0,0,0,25
0,1,11.993329,1882013673,9070835,1718,68567,0,309.179656982422,2052.10913085938,126.345825195313,0,0,0,0,0,0,25
0,1,12.040355,1882057490,9071565,1665,68567,0,307.96875,2052.3828125,126.35498046875,0,0,0,0,0,0,25
0,1,12.080349,1882100967,9072293,1675,68567,0,309.2578125,2052.3828125,126.35498046875,0,0,0,0,0,0,25
0,1,12.12638,1882143501,9073006,1697,68567,0,306.796844482422,2052.57788085938,126.358032226563,0,0,0,0,0,0,25
0,1,12.167371,1882186888,9073759,1677,68567,0,306.8359375,2052.3046875,126.3427734375,0,0,0,0,0,0,25
0,1,12.2104,1882230395,9074523,1810,68567,0,306.8359375,2052.4609375,126.3427734375,0,0,0,0,0,0,25
0,1,12.275394,1882273597,9075273,1735,68567,0,309.179656982422,2052.4609375,126.351928710938,0,0,0,0,0,0,25
0,1,12.295401,1882315292,9076005,1731,68567,0,309.2578125,2052.81225585938,126.3671875,0,0,0,0,0,0,25
0,1,12.34341,1882357038,9076716,1700,68567,0,308.046875,2052.6171875,126.364135742188,0,0,0,0,0,0,25
0,1,12.388419,1882398439,9077425,1676,68567,0,308.046875,2052.57788085938,126.348876953125,0,0,0,0,0,0,25
0,1,12.430429,1882441617,9078169,1758,68567,0,307.9296875,2052.2265625,126.345825195313,0,0,0,0,0,0,25
0,1,12.465438,1882484898,9078900,1685,68567,0,308.007781982422,2052.1484375,126.339721679688,0,0,0,0,0,0,25
0,1,12.513462,1882525595,9079595,1678,68567,0,308.007781982422,2052.5,126.364135742188,0,0,0,0,0,0,25
0,1,12.595469,1882567078,9080298,1707,68567,0,308.124969482422,2052.2265625,126.361083984375,0,0,0,0,0,0,25
0,1,12.600468,1882608736,9081017,1677,68567,0,309.3359375,2052.7734375,126.358032226563,0,0,0,0,0,0,25
0,1,12.631477,1882652003,9081766,1771,68567,0,308.007781982422,2052.421875,126.351928710938,0,0,0,0,0,0,25
0,1,12.68354,1882697471,9082547,1737,68567,0,308.046875,2052.5390625,126.351928710938,0,0,0,0,0,0,25
0,1,12.730537,1882738536,9083274,1727,68567,0,307.5,2052.5,126.358032226563,0,0,0,0,0,0,25
0,1,12.759562,1882780110,9083997,1773,68567,0,308.085906982422,2052.6171875,126.361083984375,0,0,0,0,0,0,25
0,1,12.801566,1882820981,9084709,1735,68567,0,308.007781982422,2052.3828125,126.35498046875,0,0,0,0,0,0,25
0,1,12.891792,1882862391,9085434,1769,68567,0,306.875,2052.34350585938,126.35498046875,0,0,0,0,0,0,25
0,1,12.894592,1882905791,9086184,1729,68567,0,306.8359375,2052.421875,126.361083984375,0,0,0,0,0,0,25
0,1,12.935581,1882950859,9086973,1704,68567,0,308.124969482422,2052.5,126.3671875,0,0,0,0,0,0,25
0,1,12.974606,1882994250,9087718,1751,68567,0,306.914031982422,2052.0703125,126.348876953125,0,0,0,0,0,0,25
0,1,13.024606,1883036615,9088431,1688,68567,0,307.3046875,2049.296875,126.18408203125,0,0,0,0,0,0,25
0,1,13.059625,1883079380,9089155,1674,68567,0,307.3046875,2049.296875,126.187133789063,0,0,0,0,0,0,25
0,1,13.10464,1883122790,9089877,1663,68567,0,306.09375,2049.41381835938,126.18408203125,0,0,0,0,0,0,25
0,1,13.150647,1883166149,9090609,1649,68567,0,306.132781982422,2049.296875,126.187133789063,0,0,0,0,0,0,25
0,1,13.204662,1883206817,9091318,1791,68567,0,306.09375,2049.0625,126.181030273438,0,0,0,0,0,0,25
0,1,13.233666,1883250208,9092064,1727,68567,0,308.554656982422,2049.296875,126.187133789063,0,0,0,0,0,0,25
0,1,13.274659,1883291146,9092778,1723,68567,0,308.437469482422,2049.17944335938,126.15966796875,0,0,0,0,0,0,25
0,1,13.315671,1883333733,9093509,1728,68567,0,307.265625,2049.296875,126.177978515625,0,0,0,0,0,0,25
0,1,13.356697,1883377252,9094267,1715,68567,0,307.265625,2049.375,126.187133789063,0,0,0,0,0,0,25
0,1,13.400689,1883420081,9095019,1781,68567,0,307.343719482422,2049.296875,126.181030273438,0,0,0,0,0,0,25
0,1,13.441716,1883461771,9095734,1706,68567,0,307.3046875,2049.0625,126.181030273438,0,0,0,0,0,0,25
0,1,13.512733,1883505189,9096486,1685,68567,0,307.226531982422,2049.2578125,126.171875,0,0,0,0,0,0,25
0,1,13.527736,1883547343,9097215,1773,68567,0,307.3046875,2048.94506835938,126.174926757813,0,0,0,0,0,0,25
0,1,13.56873,1883588749,9097929,1712,68567,0,306.09375,2049.17944335938,126.174926757813,0,0,0,0,0,0,25
0,1,13.616739,1883631889,9098669,1725,68567,0,306.09375,2049.21875,126.187133789063,0,0,0,0,0,0,25
0,1,13.654766,1883675071,9099396,1680,68567,0,306.171844482422,2049.140625,126.18408203125,0,0,0,0,0,0,25
0,1,13.700778,1883718175,9100136,1659,68567,0,307.3046875,2049.3359375,126.177978515625,0,0,0,0,0,0,25
0,1,13.743807,1883763374,9100922,1794,68567,0,306.171844482422,2048.94506835938,126.168823242188,0,0,0,0,0,0,25
0,1,13.812802,1883805327,9101647,1746,68567,0,308.437469482422,2049.21875,126.18408203125,0,0,0,0,0,0,25
0,1,13.828808,1883847293,9102385,1738,68567,0,307.265625,2048.7890625,126.171875,0,0,0,0,0,0,25
0,1,13.870815,1883888221,9103088,1714,68567,0,307.265625,2049.140625,126.190185546875,0,0,0,0,0,0,25
0,1,13.918826,1883931363,9103837,1706,68567,0,306.09375,2049.21875,126.18408203125,0,0,0,0,0,0,25
0,1,13.963836,1883974462,9104597,1791,68567,0,307.148406982422,2048.7109375,126.156616210938,0,0,0,0,0,0,25
0,1,14.002849,1884015788,9105306,1697,68567,0,308.046875,2052.65625,126.35498046875,0,0,0,0,0,0,25
0,1,14.037906,1884058660,9106040,1675,68567,0,306.914031982422,2052.7734375,126.361083984375,0,0,0,0,0,0,25
0,1,14.125931,1884105800,9106831,1721,68567,0,308.1640625,2052.5,126.358032226563,0,0,0,0,0,0,25
0,1,14.128931,1884149076,9107560,1740,68567,0,306.796844482422,2052.3828125,126.348876953125,0,0,0,0,0,0,25
0,1,14.179927,1884194786,9108358,1730,68567,0,306.875,2052.6953125,126.364135742188,0,0,0,0,0,0,25
0,1,14.225952,1884236678,9109078,1719,68567,0,303.320281982422,2052.85131835938,126.370239257813,0,0,0,0,0,0,25
0,1,14.261942,1884280007,9109832,1695,68567,0,301.015625,2052.2265625,126.361083984375,0,0,0,0,0,0,25
0,1,14.302952,1884322634,9110566,1758,68567,0,301.015625,2052.421875,126.358032226563,0,0,0,0,0,0,25
0,1,14.352976,1884363324,9111256,1720,68567,0,300.546875,2052.7734375,126.370239257813,0,0,0,0,0,0,25
0,1,14.43198,1884406675,9112009,1708,68567,0,298.6328125,2052.7734375,126.3671875,0,0,0,0,0,0,25
0,1,14.434981,1884450243,9112748,1718,68567,0,297.5,2052.5,126.364135742188,0,0,0,0,0,0,25
0,1,14.474988,1884491462,9113454,1702,68567,0,298.671844482422,2052.1875,126.35498046875,0,0,0,0,0,0,25
0,1,14.523999,1884535169,9114227,1794,68567,0,297.382781982422,2052.85131835938,126.364135742188,0,0,0,0,0,0,25
0,1,14.626027,1884576324,9114932,1689,68567,0,298.437469482422,2052.1484375,126.33056640625,0,0,0,0,0,0,25
0,1,14.704123,1884619700,9115675,1668,68567,0,297.382781982422,2052.2265625,126.345825195313,0,0,0,0,0,0,25
0,1,14.740069,1884663125,9116406,1728,68567,0,298.6328125,2052.2265625,126.361083984375,0,0,0,0,0,0,25
0,1,14.743069,1884704213,9117101,1709,68567,0,298.749969482422,2052.4609375,126.3671875,0,0,0,0,0,0,25
0,1,14.74507,1884747602,9117859,1761,68567,0,297.382781982422,2052.10913085938,126.336669921875,0,0,0,0,0,0,25
0,1,14.771073,1884791226,9118601,1688,68567,0,298.671844482422,2052.265625,126.3427734375,0,0,0,0,0,0,25
0,1,14.818082,1884832256,9119309,1672,68567,0,298.6328125,2052.4609375,126.35498046875,0,0,0,0,0,0,25
0,1,14.856074,1884873705,9120018,1758,68567,0,299.1796875,2052.4609375,126.358032226563,0,0,0,0,0,0,25
0,1,14.904102,1884916912,9120759,1736,68567,0,297.421875,2052.3046875,126.361083984375,0,0,0,0,0,0,25
0,1,14.937097,1884957637,9121473,1764,68567,0,297.421875,2052.421875,126.361083984375,0,0,0,0,0,0,25
0,1,14.981104,1885001011,9122218,1708,68567,0,297.460906982422,2052.421875,126.3671875,0,0,0,0,0,0,25
0,1,15.048119,1885048654,9123046,1700,68567,0,297.812469482422,2049.1015625,126.181030273438,0,0,0,0,0,0,25
0,1,15.069123,1885089322,9123751,1772,68567,0,296.6796875,2049.17944335938,126.1962890625,0,0,0,0,0,0,25
0,1,15.110135,1885130362,9124448,1691,68567,0,299.101531982422,2048.984375,126.1962890625,0,0,0,0,0,0,25
0,1,15.162144,1885171472,9125146,1685,68567,0,299.140625,2048.984375,126.187133789063,0,0,0,0,0,0,25
0,1,15.198173,1885214741,9125886,1725,68567,0,297.890594482422,2049.0625,126.190185546875,0,0,0,0,0,0,25
0,1,15.243227,1885257971,9126642,1705,68567,0,297.929718017578,2049.5703125,126.205444335938,0,0,0,0,0,0,25
0,1,15.285225,1885299351,9127352,1754,68567,0,297.8515625,2049.2578125,126.1962890625,0,0,0,0,0,0,25
0,1,15.362243,1885340883,9128048,1665,68567,0,296.7578125,2049.21875,126.1962890625,0,0,0,0,0,0,25
0,1,15.365256,1885381267,9128724,1661,68567,0,296.6796875,2049.2578125,126.193237304688,0,0,0,0,0,0,25
0,1,15.406439,1885422805,9129423,1701,68567,0,296.796844482422,2048.94506835938,126.199340820313,0,0,0,0,0,0,25
0,1,15.475437,1885495549,9130693,1755,68567,0,296.718719482422,2048.8671875,126.177978515625,0,0,0,0,0,0,25
0,1,15.53445,1885549906,9131655,1750,68567,0,296.5625,2048.59375,126.165771484375,0,0,0,0,0,0,25
0,1,15.584461,1885592312,9132402,1736,68567,0,296.718719482422,2049.0625,126.202392578125,0,0,0,0,0,0,25
0,1,15.662501,1885634082,9133114,1695,68567,0,296.7578125,2049.17944335938,126.193237304688,0,0,0,0,0,0,25
0,1,15.665482,1885676505,9133839,1682,68567,0,296.7578125,2049.17944335938,126.1962890625,0,0,0,0,0,0,25
0,1,15.696489,1885716575,9134533,1774,68567,0,296.601531982422,2048.8671875,126.18408203125,0,0,0,0,0,0,25
0,1,15.737511,1885757755,9135231,1686,68567,0,296.6796875,2049.296875,126.193237304688,0,0,0,0,0,0,25
0,1,15.78953,1885803195,9135997,1658,68567,0,296.6796875,2048.7890625,126.193237304688,0,0,0,0,0,0,25
0,1,15.826516,1885847064,9136731,1696,68567,0,296.601531982422,2049.0625,126.181030273438,0,0,0,0,0,0,25
0,1,15.871807,1885888994,9137444,1685,68567,0,296.640625,2049.0625,126.190185546875,0,0,0,0,0,0,25
0,1,15.911816,1885931494,9138194,1800,68567,0,296.7578125,2049.0625,126.193237304688,0,0,0,0,0,0,25
0,1,15.985833,1885973475,9138922,1737,68567,0,296.6796875,2049.0234375,126.193237304688,0,0,0,0,0,0,25
0,1,15.998856,1886014522,9139646,1728,68567,0,296.2109375,2052.34350585938,126.370239257813,0,0,0,0,0,0,25
0,1,16.040868,1886058335,9140405,1770,68567,0,297.5,2052.421875,126.361083984375,0,0,0,0,0,0,25
0,1,16.092876,1886101707,9141154,1713,68567,0,297.5,2052.5,126.370239257813,0,0,0,0,0,0,25
0,1,16.132886,1886150044,9141980,1689,68567,0,297.421875,2052.57788085938,126.35498046875,0,0,0,0,0,0,25
0,1,16.1809,1886193853,9142710,1668,68567,0,297.382781982422,2052.34350585938,126.361083984375,0,0,0,0,0,0,25
0,1,16.22091,1886236445,9143426,1654,68567,0,296.289031982422,2052.65625,126.370239257813,0,0,0,0,0,0,25
0,1,16.302902,1886279993,9144179,1764,68567,0,297.460906982422,2052.6171875,126.370239257813,0,0,0,0,0,0,25
0,1,16.305903,1886323361,9144924,1745,68567,0,297.460906982422,2052.421875,126.364135742188,0,0,0,0,0,0,25
0,1,16.348916,1886366582,9145687,1722,68567,0,296.171844482422,2052.6171875,126.376342773438,0,0,0,0,0,0,25
0,1,16.400932,1886408188,9146416,1797,68567,0,297.5390625,2052.65625,126.373291015625,0,0,0,0,0,0,25
0,1,16.445937,1886450216,9147150,1729,68567,0,296.289031982422,2052.3828125,126.370239257813,0,0,0,0,0,0,25
0,1,16.477944,1886494585,9147919,1728,68567,0,296.328125,2052.421875,126.364135742188,0,0,0,0,0,0,25
0,1,16.522953,1886534761,9148601,1696,68567,0,296.1328125,2052.34350585938,126.364135742188,0,0,0,0,0,0,25
0,1,16.607978,1886578095,9149353,1679,68567,0,294.960906982422,2052.4609375,126.361083984375,0,0,0,0,0,0,25
0,1,16.610977,1886619475,9150074,1797,68567,0,296.328125,2052.6953125,126.3671875,0,0,0,0,0,0,25
0,1,16.641982,1886662636,9150816,1707,68567,0,293.906219482422,2052.4609375,126.3671875,0,0,0,0,0,0,25
0,1,16.695995,1886706041,9151561,1701,68567,0,295.078094482422,2052.57788085938,126.373291015625,0,0,0,0,0,0,25
0,1,16.75102,1886748758,9152280,1685,68567,0,293.828125,2052.4609375,126.376342773438,0,0,0,0,0,0,25
0,1,16.838315,1886790277,9152990,1653,68567,0,293.75,2051.83569335938,126.348876953125,0,0,0,0,0,0,25
0,1,16.917339,1886832206,9153699,1745,68567,0,292.65625,2052.3046875,126.3671875,0,0,0,0,0,0,25
0,1,16.92034,1886872845,9154381,1712,68567,0,293.789031982422,2052.6171875,126.361083984375,0,0,0,0,0,0,25
0,1,16.922336,1886916100,9155130,1725,68567,0,293.75,2052.03125,126.345825195313,0,0,0,0,0,0,25
0,1,16.93934,1886959628,9155867,1696,68567,0,292.6171875,2052.421875,126.358032226563,0,0,0,0,0,0,25
0,1,16.979347,1886999641,9156560,1669,68567,0,292.65625,2052.65625,126.373291015625,0,0,0,0,0,0,25
0,1,17.02936,1887040878,9157279,1805,68567,0,293.0859375,2049.1015625,126.199340820313,0,0,0,0,0,0,25
0,1,17.075562,1887086113,9158062,1725,68567,0,292.96875,2048.1640625,126.156616210938,0,0,0,0,0,0,25
0,1,17.106568,1887126930,9158776,1728,68567,0,293.007781982422,2049.41381835938,126.18408203125,0,0,0,0,0,0,25
0,1,17.159581,1887172958,9159557,1719,68567,0,291.875,2048.94506835938,126.18408203125,0,0,0,0,0,0,25
0,1,17.234616,1887213341,9160247,1679,68567,0,291.953094482422,2049.17944335938,126.205444335938,0,0,0,0,0,0,25
0,1,17.236617,1887256152,9160989,1770,68567,0,291.9921875,2049.296875,126.202392578125,0,0,0,0,0,0,25
0,1,17.286632,1887297493,9161686,1673,68567,0,293.124969482422,2049.17944335938,126.193237304688,0,0,0,0,0,0,25
0,1,17.319617,1887339026,9162391,1668,68567,0,291.914031982422,2048.7890625,126.187133789063,0,0,0,0,0,0,25
0,1,17.361626,1887382359,9163115,1692,68567,0,291.835906982422,2049.2578125,126.193237304688,0,0,0,0,0,0,25
0,1,17.406637,1887425549,9163852,1678,68567,0,291.9921875,2049.140625,126.18408203125,0,0,0,0,0,0,25
0,1,17.452562,1887466961,9164575,1790,68567,0,291.328125,2049.4921875,126.1962890625,0,0,0,0,0,0,25
0,1,17.488576,1887509235,9165298,1711,68567,0,291.914031982422,2049.1015625,126.202392578125,0,0,0,0,0,0,25
0,1,17.555582,1887555478,9166100,1686,68567,0,290.6640625,2048.67163085938,126.18408203125,0,0,0,0,0,0,25
0,1,17.576571,1887596438,9166820,1810,68567,0,290.742156982422,2049.375,126.1962890625,0,0,0,0,0,0,25
0,1,17.620584,1887639913,9167584,1746,68567,0,289.570281982422,2049.17944335938,126.199340820313,0,0,0,0,0,0,25
0,1,17.667607,1887682756,9168335,1746,68567,0,290.624969482422,2048.8671875,126.18408203125,0,0,0,0,0,0,25
0,1,17.7056,1887726188,9169091,1749,68567,0,289.570281982422,2049.17944335938,126.193237304688,0,0,0,0,0,0,25
0,1,17.753609,1887769213,9169854,1734,68567,0,289.4140625,2049.0234375,126.1962890625,0,0,0,0,0,0,25
0,1,17.797624,1887811977,9170604,1781,68567,0,289.531219482422,2048.90600585938,126.193237304688,0,0,0,0,0,0,25
0,1,17.879642,1887854551,9171333,1702,68567,0,288.28125,2048.94506835938,126.193237304688,0,0,0,0,0,0,25
0,1,17.883641,1887902528,9172156,1667,68567,0,288.203125,2048.59375,126.165771484375,0,0,0,0,0,0,25
0,1,17.921649,1887942645,9172834,1719,68567,0,289.4921875,2049.0625,126.202392578125,0,0,0,0,0,0,25
0,1,17.97568,1887986109,9173565,1722,68567,0,287.109375,2048.94506835938,126.193237304688,0,0,0,0,0,0,25
0,1,18.025692,1888027899,9174285,1720,68567,0,290.234375,2052.57788085938,126.370239257813,0,0,0,0,0,0,25
0,1,18.088606,1888069150,9174986,1707,68567,0,289.023406982422,2052.5390625,126.3671875,0,0,0,0,0,0,25
0,1,18.105609,1888111897,9175727,1680,68567,0,290.15625,2052.3828125,126.35498046875,0,0,0,0,0,0,25
0,1,18.132608,1888153456,9176452,1793,68567,0,290.15625,2052.265625,126.364135742188,0,0,0,0,0,0,25
0,1,18.203623,1888196730,9177199,1723,68567,0,289.101531982422,2052.7734375,126.37939453125,0,0,0,0,0,0,25
0,1,18.219649,1888239807,9177943,1714,68567,0,290.2734375,2052.4609375,126.37939453125,0,0,0,0,0,0,25
0,1,18.260657,1888279951,9178622,1684,68567,0,288.8671875,2052.5390625,126.370239257813,0,0,0,0,0,0,25
0,1,18.315668,1888320222,9179316,1666,68567,0,289.023406982422,2052.5,126.370239257813,0,0,0,0,0,0,25
0,1,18.348678,1888367214,9180133,1797,68567,0,287.65625,2051.640625,126.327514648438,0,0,0,0,0,0,25
0,1,18.395666,1888410670,9180876,1694,68567,0,290.234375,2052.34350585938,126.3671875,0,0,0,0,0,0,25
0,1,18.433675,1888453855,9181617,1683,68567,0,287.890625,2052.2265625,126.3671875,0,0,0,0,0,0,25
0,1,18.533699,1888494998,9182313,1710,68567,0,289.101531982422,2052.1484375,126.361083984375,0,0,0,0,0,0,25
0,1,18.536699,1888537517,9183044,1669,68567,0,287.929656982422,2052.5390625,126.382446289063,0,0,0,0,0,0,25
0,1,18.558704,1888578155,9183728,1735,68567,0,287.7734375,2052.3046875,126.370239257813,0,0,0,0,0,0,25
0,1,18.601718,1888621886,9184454,1682,68567,0,289.023406982422,2052.4609375,126.37939453125,0,0,0,0,0,0,25
0,1,18.648725,1888662266,9185145,1695,68567,0,288.984344482422,2051.953125,126.336669921875,0,0,0,0,0,0,25
0,1,18.683749,1888704055,9185856,1720,68567,0,287.929656982422,2051.9921875,126.3671875,0,0,0,0,0,0,25
0,1,18.731745,1888747381,9186620,1716,68567,0,287.812469482422,2052.1875,126.364135742188,0,0,0,0,0,0,25
0,1,18.773754,1888788687,9187360,1837,68567,0,286.7578125,2052.421875,126.370239257813,0,0,0,0,0,0,25
0,1,18.851769,1888830675,9188098,1748,68567,0,288.984344482422,2052.4609375,126.373291015625,0,0,0,0,0,0,25
0,1,18.85477,1888872021,9188832,1743,68567,0,287.890625,2052.265625,126.373291015625,0,0,0,0,0,0,25
0,1,18.895779,1888914333,9189560,1733,68567,0,287.8515625,2052.2265625,126.3671875,0,0,0,0,0,0,25
0,1,18.94079,1888954635,9190255,1691,68567,0,287.890625,2052.6171875,126.370239257813,0,0,0,0,0,0,25
0,1,18.9878,1888996918,9190971,1726,68567,0,289.0625,2052.65625,126.373291015625,0,0,0,0,0,0,25
0,1,19.020807,1889037426,9191645,1681,68567,0,288.3203125,2049.140625,126.202392578125,0,0,0,0,0,0,25
0,1,19.065817,1889080216,9192368,1666,68567,0,287.148406982422,2048.90600585938,126.190185546875,0,0,0,0,0,0,25
0,1,19.100826,1889121542,9193066,1698,68567,0,287.148406982422,2049.296875,126.1962890625,0,0,0,0,0,0,25
0,1,19.171846,1889162189,9193769,1669,68567,0,286.406219482422,2049.2578125,126.205444335938,0,0,0,0,0,0,25
0,1,19.187847,1889203158,9194468,1760,68567,0,286.015625,2049.296875,126.205444335938,0,0,0,0,0,0,25
0,1,19.226854,1889245230,9195181,1721,68567,0,286.054656982422,2049.4921875,126.199340820313,0,0,0,0,0,0,25
0,1,19.27487,1889288682,9195938,1733,68567,0,285.9375,2049.0625,126.20849609375,0,0,0,0,0,0,25
0,1,19.307875,1889328704,9196628,1735,68567,0,284.84375,2049.92163085938,126.205444335938,0,0,0,0,0,0,25
0,1,19.354901,1889371460,9197389,1720,68567,0,284.7265625,2049.3359375,126.202392578125,0,0,0,0,0,0,25
0,1,19.396894,1889412407,9198102,1795,68567,0,284.765594482422,2049.1015625,126.1962890625,0,0,0,0,0,0,25
0,1,19.478934,1889455584,9198843,1701,68567,0,284.7265625,2049.140625,126.205444335938,0,0,0,0,0,0,25
0,1,19.481938,1889498855,9199585,1692,68567,0,284.8046875,2049.3359375,126.214599609375,0,0,0,0,0,0,25
0,1,19.525057,1889541637,9200311,1711,68567,0,284.7265625,2048.90600585938,126.202392578125,0,0,0,0,0,0,25
0,1,19.574068,1889582526,9201016,1676,68567,0,284.687469482422,2049.140625,126.1962890625,0,0,0,0,0,0,25
0,1,19.629062,1889627920,9201800,1756,68567,0,284.8046875,2049.21875,126.20849609375,0,0,0,0,0,0,25
0,1,19.658067,1889671340,9202544,1734,68567,0,285.8984375,2048.7890625,126.1962890625,0,0,0,0,0,0,25
0,1,19.693696,1889714508,9203303,1712,68567,0,283.6328125,2048.90600585938,126.1962890625,0,0,0,0,0,0,25
0,1,19.794702,1889757767,9204060,1803,68567,0,284.8046875,2049.296875,126.20849609375,0,0,0,0,0,0,25
0,1,19.797705,1889799660,9204787,1738,68567,0,283.476531982422,2048.7109375,126.199340820313,0,0,0,0,0,0,25
0,1,19.825709,1889840461,9205502,1750,68567,0,283.6328125,2048.94506835938,126.202392578125,0,0,0,0,0,0,25
0,1,19.866723,1889881420,9206196,1672,68567,0,283.593719482422,2048.90600585938,126.199340820313,0,0,0,0,0,0,25
0,1,19.911748,1889924903,9206935,1643,68567,0,283.710906982422,2049.3359375,126.217651367188,0,0,0,0,0,0,25
0,1,19.950754,1889971440,9207720,1736,68567,0,283.5546875,2048.75,126.190185546875,0,0,0,0,0,0,25
0,1,19.994762,1890014724,9208443,1706,68567,0,285.46875,2052.265625,126.370239257813,0,0,0,0,0,0,25
0,1,20.038758,1890058135,9209191,1697,68567,0,284.375,2052.03125,126.382446289063,0,0,0,0,0,0,25
0,1,20.114781,1890098547,9209881,1719,68567,0,284.335906982422,2052.734375,126.37939453125,0,0,0,0,0,0,25
0,1,20.119796,1890140447,9210614,1694,68567,0,284.335906982422,2052.421875,126.37939453125,0,0,0,0,0,0,25
0,1,20.16279,1890182885,9211353,1789,68567,0,283.124969482422,2052.57788085938,126.382446289063,0,0,0,0,0,0,25
0,1,20.213797,1890223902,9212054,1707,68567,0,283.203125,2052.3828125,126.376342773438,0,0,0,0,0,0,25
0,1,20.257808,1890267155,9212801,1701,68567,0,283.046844482422,2052.1875,126.35498046875,0,0,0,0,0,0,25
0,1,20.294816,1890310612,9213543,1736,68567,0,283.0859375,2052.0703125,126.370239257813,0,0,0,0,0,0,25
0,1,20.331828,1890351044,9214243,1693,68567,0,283.203125,2052.1875,126.373291015625,0,0,0,0,0,0,25
0,1,20.371834,1890392645,9214968,1784,68567,0,283.124969482422,2052.3046875,126.376342773438,0,0,0,0,0,0,25
0,1,20.437849,1890435232,9215702,1740,68567,0,283.124969482422,2052.34350585938,126.376342773438,0,0,0,0,0,0,25
0,1,20.456855,1890477170,9216442,1729,68567,0,282.070281982422,2052.734375,126.382446289063,0,0,0,0,0,0,25
0,1,20.501877,1890522817,9217222,1743,68567,0,283.0859375,2052.65625,126.376342773438,0,0,0,0,0,0,25
0,1,20.549895,1890564361,9217928,1700,68567,0,282.03125,2052.265625,126.370239257813,0,0,0,0,0,0,25
0,1,20.586505,1890605725,9218642,1745,68567,0,281.953094482422,2052.65625,126.37939453125,0,0,0,0,0,0,25
0,1,20.628076,1890646314,9219325,1685,68567,0,283.164031982422,2052.5,126.373291015625,0,0,0,0,0,0,25
0,1,20.669072,1890686510,9220018,1687,68567,0,281.953094482422,2052.65625,126.382446289063,0,0,0,0,0,0,25
0,1,20.752085,1890728728,9220740,1742,68567,0,283.124969482422,2052.1875,126.373291015625,0,0,0,0,0,0,25
0,1,20.755085,1890770862,9221471,1693,68567,0,283.164031982422,2052.3828125,126.376342773438,0,0,0,0,0,0,25
0,1,20.792094,1890811223,9222162,1757,68567,0,283.164031982422,2052.65625,126.388549804688,0,0,0,0,0,0,25
0,1,20.832123,1890852496,9222862,1728,68567,0,283.203125,2052.6171875,126.37939453125,0,0,0,0,0,0,25
0,1,20.910206,1890897133,9223642,1712,68567,0,280.742156982422,2052.6953125,126.37939453125,0,0,0,0,0,0,25
0,1,20.961236,1890939535,9224386,1800,68567,0,282.03125,2052.5390625,126.382446289063,0,0,0,0,0,0,25
0,1,20.991243,1890981722,9225132,1747,68567,0,281.9921875,2052.0703125,126.361083984375,0,0,0,0,0,0,25
0,1,21.001241,1891022037,9225840,1776,68567,0,280.078125,2049.21875,126.20849609375,0,0,0,0,0,0,25
0,1,21.081245,1891064425,9226567,1703,68567,0,281.25,2049.2578125,126.1962890625,0,0,0,0,0,0,25
0,1,21.087266,1891107861,9227319,1679,68567,0,281.25,2049.2578125,126.20849609375,0,0,0,0,0,0,25
0,1,21.130258,1891150691,9228052,1755,68567,0,281.328155517578,2049.453125,126.217651367188,0,0,0,0,0,0,25
0,1,21.182286,1891192877,9228770,1725,68567,0,280.0390625,2049.1015625,126.202392578125,0,0,0,0,0,0,25
0,1,21.220183,1891233045,9229466,1740,68567,0,279.999969482422,2048.94506835938,126.1962890625,0,0,0,0,0,0,25
0,1,21.253191,1891273880,9230159,1703,68567,0,280.15625,2049.41381835938,126.220703125,0,0,0,0,0,0,25
0,1,21.304203,1891316241,9230894,1682,68567,0,281.25,2049.0234375,126.205444335938,0,0,0,0,0,0,25
0,1,21.386225,1891361678,9231680,1790,68567,0,281.171844482422,2048.7109375,126.190185546875,0,0,0,0,0,0,25
0,1,21.416242,1891432527,9232892,1761,68567,0,279.921875,2048.90600585938,126.187133789063,0,0,0,0,0,0,25
0,1,21.454251,1891473464,9233587,1725,68567,0,280.195281982422,2049.296875,126.214599609375,0,0,0,0,0,0,25
0,1,21.496247,1891516940,9234345,1731,68567,0,281.25,2048.67163085938,126.187133789063,0,0,0,0,0,0,25
0,1,21.542422,1891559644,9235065,1677,68567,0,281.289031982422,2049.296875,126.202392578125,0,0,0,0,0,0,25
0,1,21.590428,1891603213,9235810,1666,68567,0,281.171844482422,2049.0234375,126.1962890625,0,0,0,0,0,0,25
0,1,21.624422,1891645062,9236542,1802,68567,0,280.078125,2049.17944335938,126.211547851563,0,0,0,0,0,0,25
0,1,21.700437,1891688362,9237292,1742,68567,0,282.4609375,2049.375,126.20849609375,0,0,0,0,0,0,25
0,1,21.715446,1891731944,9238060,1722,68567,0,281.25,2049.0625,126.202392578125,0,0,0,0,0,0,25
0,1,21.756468,1891773942,9238785,1759,68567,0,281.3671875,2049.4921875,126.220703125,0,0,0,0,0,0,25
0,1,21.806481,1891820252,9239585,1723,68567,0,279.882781982422,2048.828125,126.1962890625,0,0,0,0,0,0,25
0,1,21.853492,1891869346,9240432,1692,68567,0,281.25,2048.75,126.199340820313,0,0,0,0,0,0,25
0,1,21.900499,1891913219,9241188,1764,68567,0,282.499969482422,2049.2578125,126.214599609375,0,0,0,0,0,0,25
0,1,21.942494,1891956394,9241935,1731,68567,0,281.25,2049.375,126.193237304688,0,0,0,0,0,0,25
0,1,22.020514,1891996831,9242640,1761,68567,0,280.0390625,2048.94506835938,126.199340820313,0,0,0,0,0,0,25
0,1,22.022527,1892039465,9243368,1704,68567,0,280.703125,2052.6171875,126.364135742188,0,0,0,0,0,0,25
0,1,22.06354,1892083111,9244125,1678,68567,0,280.8203125,2052.421875,126.37939453125,0,0,0,0,0,0,25
0,1,22.114535,1892124889,9244844,1771,68567,0,281.9921875,2052.6171875,126.382446289063,0,0,0,0,0,0,25
0,1,22.159561,1892168507,9245594,1751,68567,0,279.687469482422,2052.5,126.382446289063,0,0,0,0,0,0,25
0,1,22.190569,1892210085,9246327,1754,68567,0,280.742156982422,2052.57788085938,126.364135742188,0,0,0,0,0,0,25
0,1,22.242629,1892253242,9247060,1678,68567,0,280.781219482422,2052.81225585938,126.376342773438,0,0,0,0,0,0,25
0,1,22.33663,1892296030,9247790,1650,68567,0,280.859344482422,2052.57788085938,126.37939453125,0,0,0,0,0,0,25
0,1,22.339631,1892337506,9248490,1744,68567,0,279.609375,2052.421875,126.376342773438,0,0,0,0,0,0,25
0,1,22.360638,1892381093,9249221,1706,68567,0,280.742156982422,2052.734375,126.373291015625,0,0,0,0,0,0,25
0,1,22.404665,1892424776,9249975,1706,68567,0,279.609375,2052.4609375,126.37939453125,0,0,0,0,0,0,25
0,1,22.450659,1892466092,9250684,1730,68567,0,279.570281982422,2051.953125,126.364135742188,0,0,0,0,0,0,25
0,1,22.489664,1892508211,9251427,1716,68567,0,279.609375,2052.265625,126.373291015625,0,0,0,0,0,0,25
0,1,22.53768,1892550958,9252190,1824,68567,0,279.4921875,2052.1875,126.364135742188,0,0,0,0,0,0,25
0,1,22.579687,1892591564,9252896,1721,68567,0,279.609375,2052.734375,126.376342773438,0,0,0,0,0,0,25
0,1,22.665709,1892634954,9253652,1706,68567,0,279.687469482422,2052.57788085938,126.3916015625,0,0,0,0,0,0,25
0,1,22.66871,1892684414,9254495,1753,68567,0,278.398468017578,2052.1875,126.358032226563,0,0,0,0,0,0,25
0,1,22.709735,1892727908,9255228,1692,68567,0,279.609375,2052.5,126.37939453125,0,0,0,0,0,0,25
0,1,22.758746,1892768646,9255921,1691,68567,0,279.6484375,2052.4609375,126.376342773438,0,0,0,0,0,0,25
0,1,22.799751,1892812278,9256651,1673,68567,0,278.476531982422,2052.81225585938,126.385498046875,0,0,0,0,0,0,25
0,1,22.833758,1892854572,9257372,1646,68567,0,279.570281982422,2052.1875,126.370239257813,0,0,0,0,0,0,25
0,1,22.883758,1892896644,9258105,1798,68567,0,278.476531982422,2052.734375,126.37939453125,0,0,0,0,0,0,25
0,1,22.922769,1892942831,9258904,1746,68567,0,279.6484375,2052.4609375,126.37939453125,0,0,0,0,0,0,25
0,1,22.992778,1892984587,9259644,1736,68567,0,279.570281982422,2052.734375,126.37939453125,0,0,0,0,0,0,25
0,1,23.007784,1893026589,9260370,1752,68567,0,278.9453125,2049.17944335938,126.211547851563,0,0,0,0,0,0,25
0,1,23.048795,1893068164,9261093,1737,68567,0,278.906219482422,2049.0625,126.199340820313,0,0,0,0,0,0,25
0,1,23.097803,1893110474,9261843,1791,68567,0,277.6953125,2049.4921875,126.211547851563,0,0,0,0,0,0,25
0,1,23.13381,1893152439,9262571,1727,68567,0,277.6953125,2049.375,126.1962890625,0,0,0,0,0,0,25
0,1,23.174822,1893194753,9263315,1708,68567,0,277.6953125,2048.984375,126.1962890625,0,0,0,0,0,0,25
0,1,23.227852,1893236339,9264044,1801,68567,0,277.6953125,2049.140625,126.20849609375,0,0,0,0,0,0,25
0,1,23.312854,1893277861,9264766,1734,68567,0,276.5625,2049.2578125,126.193237304688,0,0,0,0,0,0,25
0,1,23.315856,1893318693,9265474,1741,68567,0,276.523406982422,2049.140625,126.214599609375,0,0,0,0,0,0,25
0,1,23.343861,1893364724,9266255,1686,68567,0,276.484375,2049.140625,126.20849609375,0,0,0,0,0,0,25
0,1,23.393885,1893408122,9266999,1661,68567,0,276.484375,2049.2578125,126.20849609375,0,0,0,0,0,0,25
0,1,23.437902,1893450458,9267716,1739,68567,0,275.2734375,2048.94506835938,126.1962890625,0,0,0,0,0,0,25
0,1,23.475909,1893492817,9268422,1688,68567,0,275.1953125,2048.7109375,126.181030273438,0,0,0,0,0,0,25
0,1,23.512916,1893533581,9269117,1696,68567,0,276.523406982422,2049.0234375,126.202392578125,0,0,0,0,0,0,25
0,1,23.558927,1893576961,9269836,1656,68567,0,275.312469482422,2049.296875,126.190185546875,0,0,0,0,0,0,25
0,1,23.628954,1893618321,9270538,1628,68567,0,275.1953125,2049.296875,126.199340820313,0,0,0,0,0,0,25
0,1,23.643959,1893661438,9271296,1829,68567,0,275.390625,2049.0234375,126.199340820313,0,0,0,0,0,0,25
0,1,23.687983,1893703522,9272033,1765,68567,0,275.2734375,2049.0234375,126.1962890625,0,0,0,0,0,0,25
0,1,23.768989,1893781180,9273407,1735,68567,0,275.2734375,2049.17944335938,126.211547851563,0,0,0,0,0,0,25
0,1,23.80201,1893822643,9274143,1723,68567,0,276.640594482422,2049.1015625,126.217651367188,0,0,0,0,0,0,25
0,1,23.847003,1893863949,9274863,1788,68567,0,275.312469482422,2049.5703125,126.214599609375,0,0,0,0,0,0,25
0,1,23.888028,1893908065,9275624,1722,68567,0,275.1953125,2048.828125,126.193237304688,0,0,0,0,0,0,25
0,1,23.957051,1893948510,9276323,1716,68567,0,275.351531982422,2049.2578125,126.199340820313,0,0,0,0,0,0,25
0,1,23.972036,1893991561,9277046,1661,68567,0,275.390625,2049.140625,126.199340820313,0,0,0,0,0,0,25
0,1,24.014043,1894033429,9277752,1635,68567,0,275.9375,2052.3046875,126.370239257813,0,0,0,0,0,0,25
0,1,24.063054,1894075682,9278462,1723,68567,0,274.882781982422,2052.5,126.373291015625,0,0,0,0,0,0,25
0,1,24.109079,1894119270,9279190,1717,68567,0,272.421844482422,2052.421875,126.373291015625,0,0,0,0,0,0,25
0,1,24.140902,1894161458,9279917,1714,68567,0,272.4609375,2052.6953125,126.370239257813,0,0,0,0,0,0,25
0,1,24.191914,1894204798,9280656,1714,68567,0,272.421844482422,2052.85131835938,126.37939453125,0,0,0,0,0,0,25
0,1,24.274934,1894247891,9281410,1704,68567,0,272.421844482422,2052.5,126.373291015625,0,0,0,0,0,0,25
0,1,24.277935,1894290708,9282175,1829,68567,0,271.25,2052.5,126.373291015625,0,0,0,0,0,0,25
0,1,24.317944,1894333588,9282929,1754,68567,0,272.382781982422,2052.5390625,126.370239257813,0,0,0,0,0,0,25
0,1,24.371954,1894381106,9283773,1727,68567,0,272.34375,2052.6953125,126.3916015625,0,0,0,0,0,0,25
0,1,24.41599,1894424602,9284542,1812,68567,0,272.2265625,2052.1484375,126.358032226563,0,0,0,0,0,0,25
0,1,24.449994,1894467978,9285293,1712,68567,0,272.382781982422,2052.6171875,126.37939453125,0,0,0,0,0,0,25
0,1,24.489003,1894509696,9286012,1693,68567,0,269.999969482422,2052.5,126.382446289063,0,0,0,0,0,0,25
0,1,24.559018,1894552893,9286746,1720,68567,0,271.25,2052.5,126.373291015625,0,0,0,0,0,0,25
0,1,24.600028,1894595678,9287478,1699,68567,0,271.25,2052.6171875,126.373291015625,0,0,0,0,0,0,25
0,1,24.617031,1894636450,9288186,1767,68567,0,269.999969482422,2052.734375,126.382446289063,0,0,0,0,0,0,25
0,1,24.659041,1894679372,9288913,1690,68567,0,268.828094482422,2052.5390625,126.376342773438,0,0,0,0,0,0,25
0,1,24.708054,1894722798,9289656,1668,68567,0,268.828094482422,2052.5,126.37939453125,0,0,0,0,0,0,25
0,1,24.74306,1894763274,9290330,1671,68567,0,268.7890625,2052.34350585938,126.382446289063,0,0,0,0,0,0,25
0,1,24.78907,1894806764,9291059,1671,68567,0,268.7890625,2052.6171875,126.382446289063,0,0,0,0,0,0,25
0,1,24.834066,1894851115,9291828,1757,68567,0,268.828094482422,2052.5,126.373291015625,0,0,0,0,0,0,25
0,1,24.916083,1894893935,9292560,1723,68567,0,267.617156982422,2052.6171875,126.373291015625,0,0,0,0,0,0,25
0,1,24.919081,1894936040,9293300,1705,68567,0,266.40625,2052.65625,126.382446289063,0,0,0,0,0,0,25
0,1,24.960127,1894976158,9294002,1797,68567,0,267.578125,2052.81225585938,126.382446289063,0,0,0,0,0,0,25
0,1,25.005134,1895018251,9294738,1722,68567,0,265.664031982422,2049.2578125,126.199340820313,0,0,0,0,0,0,25
0,1,25.040142,1895060563,9295469,1739,68567,0,265.8203125,2049.17944335938,126.20849609375,0,0,0,0,0,0,25
0,1,25.088157,1895102205,9296175,1693,68567,0,265.7421875,2048.8671875,126.205444335938,0,0,0,0,0,0,25
0,1,25.123166,1895142474,9296872,1684,68567,0,265.703155517578,2049.41381835938,126.20849609375,0,0,0,0,0,0,25
0,1,25.165179,1895185384,9297603,1749,68567,0,266.874969482422,2049.375,126.214599609375,0,0,0,0,0,0,25
0,1,25.244194,1895226887,9298308,1680,68567,0,265.664031982422,2049.140625,126.211547851563,0,0,0,0,0,0,25
0,1,25.247192,1895267425,9298994,1724,68567,0,265.703155517578,2048.828125,126.202392578125,0,0,0,0,0,0,25
0,1,25.290204,1895311157,9299730,1713,68567,0,264.53125,2049.41381835938,126.214599609375,0,0,0,0,0,0,25
0,1,25.342216,1895352796,9300456,1701,68567,0,264.453125,2049.21875,126.20849609375,0,0,0,0,0,0,25
0,1,25.386224,1895392857,9301144,1742,68567,0,265.703155517578,2049.296875,126.20849609375,0,0,0,0,0,0,25
0,1,25.419231,1895433647,9301851,1695,68567,0,264.453125,2048.8671875,126.20849609375,0,0,0,0,0,0,25
0,1,25.456241,1895475810,9302586,1779,68567,0,264.374969482422,2048.984375,126.199340820313,0,0,0,0,0,0,25
0,1,25.553286,1895517846,9303302,1703,68567,0,264.492156982422,2049.296875,126.202392578125,0,0,0,0,0,0,25
0,1,25.556286,1895558181,9304001,1702,68567,0,264.4140625,2049.17944335938,126.202392578125,0,0,0,0,0,0,25
0,1,25.585296,1895602422,9304768,1776,68567,0,264.492156982422,2048.90600585938,126.190185546875,0,0,0,0,0,0,25
0,1,25.6263,1895643320,9305485,1729,68567,0,264.374969482422,2049.0234375,126.199340820313,0,0,0,0,0,0,25
0,1,25.667312,1895685798,9306229,1772,68567,0,264.492156982422,2049.140625,126.217651367188,0,0,0,0,0,0,25
0,1,25.716711,1895729143,9306971,1704,68567,0,264.4140625,2049.3359375,126.202392578125,0,0,0,0,0,0,25
0,1,25.750721,1895770767,9307693,1687,68567,0,264.492156982422,2048.828125,126.211547851563,0,0,0,0,0,0,25
0,1,25.793727,1895813898,9308423,1728,68567,0,264.570281982422,2049.0625,126.193237304688,0,0,0,0,0,0,25
0,1,25.873731,1895859068,9309182,1695,68567,0,264.492156982422,2048.984375,126.202392578125,0,0,0,0,0,0,25
0,1,25.882733,1895901155,9309900,1703,68567,0,264.4140625,2049.0234375,126.205444335938,0,0,0,0,0,0,25
0,1,25.923762,1895943644,9310617,1695,68567,0,264.453125,2049.0234375,126.199340820313,0,0,0,0,0,0,25
0,1,25.974757,1895984515,9311325,1674,68567,0,264.453125,2048.8671875,126.1962890625,0,0,0,0,0,0,25
0,1,26.012785,1896027962,9312081,1802,68567,0,265.078125,2051.9140625,126.345825195313,0,0,0,0,0,0,25
0,1,26.058788,1896071345,9312832,1745,68567,0,265.234344482422,2052.890625,126.388549804688,0,0,0,0,0,0,25
0,1,26.093833,1896114127,9313587,1742,68567,0,265.156219482422,2052.4609375,126.376342773438,0,0,0,0,0,0,25
0,1,26.165829,1896155269,9314295,1724,68567,0,265.117156982422,2052.5,126.373291015625,0,0,0,0,0,0,25
0,1,26.199837,1896197433,9315029,1694,68567,0,265.156219482422,2052.34350585938,126.388549804688,0,0,0,0,0,0,25
0,1,26.218857,1896239497,9315755,1766,68567,0,265.1953125,2052.65625,126.394653320313,0,0,0,0,0,0,25
0,1,26.268855,1896282699,9316485,1685,68567,0,265.234344482422,2052.34350585938,126.37939453125,0,0,0,0,0,0,25
0,1,26.309162,1896325949,9317220,1666,68567,0,265.078125,2052.2265625,126.373291015625,0,0,0,0,0,0,25
0,1,26.349175,1896368870,9317956,1748,68567,0,265.234344482422,2052.6953125,126.37939453125,0,0,0,0,0,0,25
0,1,26.393201,1896410634,9318681,1712,68567,0,265.078125,2052.1875,126.376342773438,0,0,0,0,0,0,25
0,1,26.436195,1896455648,9319462,1746,68567,0,263.8671875,2052.34350585938,126.370239257813,0,0,0,0,0,0,25
0,1,26.521211,1896499380,9320211,1717,68567,0,265.156219482422,2052.6171875,126.376342773438,0,0,0,0,0,0,25
0,1,26.52321,1896542739,9320969,1696,68567,0,265.156219482422,2052.34350585938,126.3671875,0,0,0,0,0,0,25
0,1,26.565229,1896584081,9321689,1788,68567,0,265.2734375,2052.57788085938,126.37939453125,0,0,0,0,0,0,25
0,1,26.618232,1896627152,9322426,1704,68567,0,265.117156982422,2052.65625,126.376342773438,0,0,0,0,0,0,25
0,1,26.665263,1896668251,9323129,1700,68567,0,265.1953125,2052.2265625,126.3671875,0,0,0,0,0,0,25
0,1,26.696266,1896709298,9323821,1684,68567,0,265.156219482422,2052.5,126.3671875,0,0,0,0,0,0,25
0,1,26.731266,1896751336,9324544,1661,68567,0,263.8671875,2052.3828125,126.361083984375,0,0,0,0,0,0,25
0,1,26.829281,1896794790,9325303,1800,68567,0,263.828094482422,2052.3046875,126.376342773438,0,0,0,0,0,0,25
0,1,26.832285,1896835951,9326016,1756,68567,0,263.945281982422,2052.265625,126.382446289063,0,0,0,0,0,0,25
0,1,26.863288,1896879171,9326779,1744,68567,0,265.234344482422,2052.6171875,126.385498046875,0,0,0,0,0,0,25
0,1,26.9103,1896926819,9327602,1763,68567,0,265.156219482422,2052.1875,126.3671875,0,0,0,0,0,0,25
0,1,26.956311,1896968031,9328312,1705,68567,0,265.117156982422,2052.57788085938,126.376342773438,0,0,0,0,0,0,25
0,1,26.991316,1897010261,9329033,1726,68567,0,263.2421875,2049.17944335938,126.214599609375,0,0,0,0,0,0,25
0,1,27.031326,1897050345,9329706,1691,68567,0,264.453125,2049.1015625,126.202392578125,0,0,0,0,0,0,25
0,1,27.078335,1897092497,9330427,1673,68567,0,264.453125,2049.0625,126.199340820313,0,0,0,0,0,0,25
0,1,27.113349,1897133411,9331129,1741,68567,0,264.453125,2049.140625,126.202392578125,0,0,0,0,0,0,25
0,1,27.186363,1897173515,9331828,1695,68567,0,264.492156982422,2049.375,126.205444335938,0,0,0,0,0,0,25
0,1,27.197367,1897214297,9332538,1789,68567,0,263.3203125,2049.4921875,126.205444335938,0,0,0,0,0,0,25
0,1,27.270379,1897290523,9333862,1770,68567,0,264.53125,2049.0234375,126.20849609375,0,0,0,0,0,0,25
0,1,27.341398,1897360681,9335093,1780,68567,0,264.492156982422,2049.17944335938,126.199340820313,0,0,0,0,0,0,25
0,1,27.387423,1897401056,9335792,1720,68567,0,261.992156982422,2049.0234375,126.199340820313,0,0,0,0,0,0,25
0,1,27.429435,1897445679,9336574,1702,68567,0,263.3203125,2049.17944335938,126.205444335938,0,0,0,0,0,0,25
0,1,27.506938,1897488970,9337339,1810,68567,0,261.9140625,2049.0234375,126.199340820313,0,0,0,0,0,0,25
0,1,27.512938,1897532290,9338088,1717,68567,0,263.203094482422,2049.140625,126.202392578125,0,0,0,0,0,0,25
0,1,27.554929,1897573515,9338803,1703,68567,0,262.0703125,2049.17944335938,126.205444335938,0,0,0,0,0,0,25
0,1,27.601952,1897613865,9339483,1677,68567,0,263.203094482422,2048.7109375,126.202392578125,0,0,0,0,0,0,25
0,1,27.65697,1897656058,9340200,1657,68567,0,263.164031982422,2048.94506835938,126.190185546875,0,0,0,0,0,0,25
0,1,27.688354,1897700150,9340964,1768,68567,0,262.1484375,2048.90600585938,126.20849609375,0,0,0,0,0,0,25
0,1,27.723343,1897740599,9341658,1756,68567,0,263.2421875,2049.0625,126.199340820313,0,0,0,0,0,0,25
0,1,27.760374,1897780734,9342368,1748,68567,0,264.570281982422,2049.41381835938,126.217651367188,0,0,0,0,0,0,25
0,1,27.833382,1897824332,9343114,1707,68567,0,263.203094482422,2049.1015625,126.214599609375,0,0,0,0,0,0,25
0,1,27.84839,1897867836,9343860,1687,68567,0,263.203094482422,2049.140625,126.20849609375,0,0,0,0,0,0,25
0,1,27.890403,1897911086,9344603,1744,68567,0,263.203094482422,2049.140625,126.211547851563,0,0,0,0,0,0,25
0,1,27.937405,1897952572,9345307,1723,68567,0,262.0703125,2049.140625,126.217651367188,0,0,0,0,0,0,25
0,1,27.984392,1897995615,9346056,1699,68567,0,262.03125,2049.1015625,126.211547851563,0,0,0,0,0,0,25
0,1,28.023397,1898036676,9346771,1776,68567,0,263.984375,2052.6171875,126.376342773438,0,0,0,0,0,0,25
0,1,28.056405,1898077354,9347482,1720,68567,0,263.945281982422,2052.2265625,126.373291015625,0,0,0,0,0,0,25
0,1,28.15843,1898120843,9348238,1755,68567,0,262.8125,2052.265625,126.376342773438,0,0,0,0,0,0,25
0,1,28.168431,1898162219,9348949,1735,68567,0,262.734344482422,2052.265625,126.376342773438,0,0,0,0,0,0,25
0,1,28.184435,1898204819,9349700,1716,68567,0,262.6953125,2052.3828125,126.3671875,0,0,0,0,0,0,25
0,1,28.233448,1898248376,9350451,1768,68567,0,263.90625,2052.6171875,126.376342773438,0,0,0,0,0,0,25
0,1,28.274455,1898289581,9351155,1708,68567,0,262.6953125,2052.3046875,126.3671875,0,0,0,0,0,0,25
0,1,28.310462,1898331237,9351871,1725,68567,0,262.773468017578,2052.6171875,126.385498046875,0,0,0,0,0,0,25
0,1,28.35787,1898374908,9352607,1687,68567,0,262.734344482422,2052.421875,126.37939453125,0,0,0,0,0,0,25
0,1,28.399879,1898416055,9353317,1665,68567,0,261.5234375,2052.5390625,126.37939453125,0,0,0,0,0,0,25
0,1,28.481879,1898459301,9354070,1802,68567,0,264.0234375,2052.85131835938,126.388549804688,0,0,0,0,0,0,25
0,1,28.484893,1898502770,9354822,1733,68567,0,261.6015625,2052.57788085938,126.37939453125,0,0,0,0,0,0,25
0,1,28.529889,1898543818,9355540,1737,68567,0,262.656219482422,2052.5390625,126.376342773438,0,0,0,0,0,0,25
0,1,28.563895,1898583846,9356226,1713,68567,0,261.484375,2051.9921875,126.361083984375,0,0,0,0,0,0,25
0,1,28.608928,1898628825,9357012,1699,68567,0,261.562469482422,2052.34350585938,126.37939453125,0,0,0,0,0,0,25
0,1,28.653936,1898670178,9357741,1807,68567,0,261.484375,2052.65625,126.37939453125,0,0,0,0,0,0,25
0,1,28.700943,1898713645,9358496,1747,68567,0,262.6953125,2052.34350585938,126.376342773438,0,0,0,0,0,0,25
0,1,28.734951,1898755300,9359233,1733,68567,0,262.656219482422,2052.34350585938,126.376342773438,0,0,0,0,0,0,25
0,1,28.808972,1898796836,9359944,1716,68567,0,262.734344482422,2052.6171875,126.37939453125,0,0,0,0,0,0,25
0,1,28.82296,1898838497,9360657,1679,68567,0,261.5234375,2052.65625,126.370239257813,0,0,0,0,0,0,25
0,1,28.863964,1898881093,9361377,1722,68567,0,261.562469482422,2052.6953125,126.382446289063,0,0,0,0,0,0,25
0,1,28.911977,1898924659,9362107,1703,68567,0,261.40625,2052.265625,126.376342773438,0,0,0,0,0,0,25
0,1,28.947985,1898966663,9362830,1684,68567,0,261.484375,2052.265625,126.358032226563,0,0,0,0,0,0,25
0,1,28.997996,1899008719,9363549,1740,68567,0,260.9375,2049.4921875,126.217651367188,0,0,0,0,0,0,25
0,1,29.033035,1899051562,9364291,1722,68567,0,259.687469482422,2049.140625,126.20849609375,0,0,0,0,0,0,25
0,1,29.077075,1899095580,9365067,1774,68567,0,259.687469482422,2049.0625,126.202392578125,0,0,0,0,0,0,25
0,1,29.141087,1899139339,9365816,1696,68567,0,258.4765625,2048.7890625,126.193237304688,0,0,0,0,0,0,25
0,1,29.167108,1899182797,9366568,1674,68567,0,258.59375,2049.21875,126.211547851563,0,0,0,0,0,0,25
0,1,29.206121,1899224062,9367270,1748,68567,0,258.59375,2049.453125,126.214599609375,0,0,0,0,0,0,25
0,1,29.248113,1899267667,9368003,1692,68567,0,257.4609375,2049.375,126.220703125,0,0,0,0,0,0,25
0,1,29.296123,1899313021,9368775,1679,68567,0,257.421844482422,2048.984375,126.199340820313,0,0,0,0,0,0,25
0,1,29.333131,1899353693,9369465,1709,68567,0,257.3828125,2049.0625,126.20849609375,0,0,0,0,0,0,25
0,1,29.379141,1899398859,9370252,1705,68567,0,256.171875,2049.21875,126.205444335938,0,0,0,0,0,0,25
0,1,29.454177,1899441447,9371001,1793,68567,0,256.132781982422,2049.375,126.20849609375,0,0,0,0,0,0,25
0,1,29.469177,1899484893,9371749,1716,68567,0,256.171875,2049.0234375,126.205444335938,0,0,0,0,0,0,25
0,1,29.508184,1899528483,9372510,1695,68567,0,256.132781982422,2048.90600585938,126.199340820313,0,0,0,0,0,0,25
0,1,29.552194,1899568652,9373215,1800,68567,0,256.132781982422,2048.90600585938,126.190185546875,0,0,0,0,0,0,25
0,1,29.592211,1899610173,9373941,1732,68567,0,254.8828125,2049.21875,126.202392578125,0,0,0,0,0,0,25
0,1,29.638219,1899653720,9374698,1739,68567,0,254.960952758789,2049.0234375,126.20849609375,0,0,0,0,0,0,25
0,1,29.681211,1899693919,9375378,1680,68567,0,253.749969482422,2049.140625,126.205444335938,0,0,0,0,0,0,25
0,1,29.760246,1899737254,9376119,1655,68567,0,253.632781982422,2049.0234375,126.193237304688,0,0,0,0,0,0,25
0,1,29.762247,1899780908,9376863,1756,68567,0,253.749969482422,2048.8671875,126.211547851563,0,0,0,0,0,0,25
0,1,29.802256,1899821401,9377545,1685,68567,0,252.6171875,2048.90600585938,126.211547851563,0,0,0,0,0,0,25
0,1,29.855593,1899862228,9378238,1715,68567,0,252.578140258789,2049.41381835938,126.205444335938,0,0,0,0,0,0,25
0,1,29.899615,1899907274,9378998,1706,68567,0,252.539031982422,2049.41381835938,126.217651367188,0,0,0,0,0,0,25
0,1,29.931628,1899950755,9379757,1687,68567,0,252.5,2049.375,126.20849609375,0,0,0,0,0,0,25
0,1,29.977637,1899993845,9380517,1822,68567,0,251.171890258789,2049.0625,126.193237304688,0,0,0,0,0,0,25
0,1,30.023648,1900035661,9381242,1711,68567,0,252.031265258789,2052.2265625,126.373291015625,0,0,0,0,0,0,25
0,1,30.07864,1900077054,9381956,1710,68567,0,251.992172241211,2052.57788085938,126.388549804688,0,0,0,0,0,0,25
0,1,30.098652,1900117739,9382634,1646,68567,0,251.992172241211,2052.65625,126.37939453125,0,0,0,0,0,0,25
0,1,30.139655,1900159262,9383331,1618,68567,0,252.031265258789,2052.5,126.382446289063,0,0,0,0,0,0,25
0,1,30.190685,1900202704,9384079,1779,68567,0,251.992172241211,2052.3828125,126.388549804688,0,0,0,0,0,0,25
0,1,30.229674,1900245911,9384820,1746,68567,0,250.820281982422,2052.1484375,126.37939453125,0,0,0,0,0,0,25
0,1,30.277687,1900288171,9385563,1742,68567,0,251.914031982422,2052.4609375,126.373291015625,0,0,0,0,0,0,25
0,1,30.317695,1900330982,9386304,1742,68567,0,252.0703125,2052.5390625,126.382446289063,0,0,0,0,0,0,25
0,1,30.393731,1900372459,9387033,1716,68567,0,250.820281982422,2051.953125,126.358032226563,0,0,0,0,0,0,25
0,1,30.396732,1900414947,9387785,1803,68567,0,251.953125,2052.4609375,126.37939453125,0,0,0,0,0,0,25
0,1,30.437742,1900456873,9388506,1702,68567,0,252.031265258789,2052.6171875,126.388549804688,0,0,0,0,0,0,25
0,1,30.485771,1900497332,9389203,1694,68567,0,250.820281982422,2051.83569335938,126.361083984375,0,0,0,0,0,0,25
0,1,30.540786,1900541200,9389953,1737,68567,0,251.874984741211,2052.10913085938,126.370239257813,0,0,0,0,0,0,25
0,1,30.571773,1900584484,9390698,1697,68567,0,249.531234741211,2052.3828125,126.37939453125,0,0,0,0,0,0,25
0,1,30.605794,1900624874,9391386,1737,68567,0,250.781234741211,2052.34350585938,126.385498046875,0,0,0,0,0,0,25
0,1,30.705818,1900666757,9392085,1674,68567,0,250.820281982422,2052.65625,126.37939453125,0,0,0,0,0,0,25
0,1,30.708824,1900710214,9392822,1658,68567,0,249.5703125,2052.5390625,126.376342773438,0,0,0,0,0,0,25
0,1,30.737813,1900751175,9393517,1721,68567,0,249.648422241211,2052.65625,126.397705078125,0,0,0,0,0,0,25
0,1,30.779835,1900794507,9394268,1713,68567,0,249.648422241211,2052.6953125,126.385498046875,0,0,0,0,0,0,25
0,1,30.821848,1900835999,9395002,1803,68567,0,249.609344482422,2052.7734375,126.388549804688,0,0,0,0,0,0,25
0,1,30.867838,1900879168,9395744,1694,68567,0,249.5703125,2052.5,126.382446289063,0,0,0,0,0,0,25
0,1,30.901847,1900921116,9396467,1678,68567,0,249.6875,2052.5390625,126.388549804688,0,0,0,0,0,0,25
0,1,30.953857,1900965988,9397232,1762,68567,0,250.859375,2052.1875,126.3671875,0,0,0,0,0,0,25
0,1,31.037877,1901009425,9397977,1743,68567,0,247.734375,2049.21875,126.220703125,0,0,0,0,0,0,25
0,1,31.040878,1901052777,9398739,1748,68567,0,247.695297241211,2049.17944335938,126.214599609375,0,0,0,0,0,0,25
0,1,31.074885,1901094480,9399449,1689,68567,0,247.734375,2049.1015625,126.20849609375,0,0,0,0,0,0,25
0,1,31.11691,1901136399,9400170,1663,68567,0,247.695297241211,2049.2578125,126.199340820313,0,0,0,0,0,0,25
0,1,31.158909,1901178575,9400888,1752,68567,0,246.445297241211,2048.8671875,126.202392578125,0,0,0,0,0,0,25
0,1,31.203913,1901218924,9401567,1706,68567,0,245.312484741211,2049.375,126.211547851563,0,0,0,0,0,0,25
0,1,31.241923,1901262130,9402311,1717,68567,0,246.445297241211,2048.984375,126.1962890625,0,0,0,0,0,0,25
0,1,31.285935,1901305424,9403046,1705,68567,0,246.484375,2049.375,126.20849609375,0,0,0,0,0,0,25
0,1,31.371953,1901346886,9403770,1683,68567,0,246.601547241211,2048.984375,126.214599609375,0,0,0,0,0,0,25
0,1,31.373953,1901387695,9404479,1798,68567,0,246.5234375,2049.375,126.205444335938,0,0,0,0,0,0,25
0,1,31.415984,1901435600,9405307,1733,68567,0,246.562484741211,2049.1015625,126.205444335938,0,0,0,0,0,0,25
0,1,31.465974,1901476836,9406034,1728,68567,0,246.601547241211,2049.296875,126.211547851563,0,0,0,0,0,0,25
0,1,31.509004,1901519983,9406771,1730,68567,0,245.2734375,2048.8671875,126.18408203125,0,0,0,0,0,0,25
0,1,31.542993,1901563458,9407513,1681,68567,0,246.5234375,2049.17944335938,126.205444335938,0,0,0,0,0,0,25
0,1,31.595006,1901606709,9408242,1702,68567,0,245.312484741211,2049.0625,126.20849609375,0,0,0,0,0,0,25
0,1,31.678022,1901648701,9408937,1668,68567,0,245.2734375,2049.53125,126.214599609375,0,0,0,0,0,0,25
0,1,31.681023,1901689142,9409626,1663,68567,0,245.351547241211,2049.17944335938,126.205444335938,0,0,0,0,0,0,25
0,1,31.713032,1901732554,9410369,1759,68567,0,246.562484741211,2049.1015625,126.214599609375,0,0,0,0,0,0,25
0,1,31.766078,1901775859,9411120,1724,68567,0,245.312484741211,2049.1015625,126.217651367188,0,0,0,0,0,0,25
0,1,31.820087,1901816872,9411841,1780,68567,0,246.601547241211,2049.41381835938,126.214599609375,0,0,0,0,0,0,25
0,1,31.856097,1901860015,9412576,1685,68567,0,245.351547241211,2049.1015625,126.1962890625,0,0,0,0,0,0,25
0,1,31.886102,1901906476,9413375,1665,68567,0,246.484375,2049.140625,126.205444335938,0,0,0,0,0,0,25
0,1,31.928135,1901947920,9414100,1807,68567,0,245.2734375,2048.7890625,126.193237304688,0,0,0,0,0,0,25
0,1,31.998129,1901991401,9414850,1716,68567,0,246.5234375,2049.0625,126.199340820313,0,0,0,0,0,0,25
0,1,32.014133,1902034233,9415593,1710,68567,0,247.148422241211,2052.1484375,126.376342773438,0,0,0,0,0,0,25
0,1,32.057143,1902077445,9416321,1691,68567,0,245.976531982422,2052.3828125,126.3671875,0,0,0,0,0,0,25
0,1,32.108153,1902120251,9417050,1694,68567,0,247.2265625,2052.2265625,126.385498046875,0,0,0,0,0,0,25
0,1,32.150179,1902160324,9417754,1799,68567,0,245.976531982422,2052.10913085938,126.3671875,0,0,0,0,0,0,25
0,1,32.182169,1902202019,9418468,1696,68567,0,247.148422241211,2052.3046875,126.376342773438,0,0,0,0,0,0,25
0,1,32.235182,1902245460,9419211,1678,68567,0,245.976531982422,2052.1484375,126.373291015625,0,0,0,0,0,0,25
0,1,32.321203,1902287311,9419925,1730,68567,0,247.148422241211,2052.734375,126.376342773438,0,0,0,0,0,0,25
0,1,32.326204,1902328949,9420647,1688,68567,0,245.976531982422,2052.57788085938,126.376342773438,0,0,0,0,0,0,25
0,1,32.356209,1902372953,9421395,1732,68567,0,245.9375,2051.953125,126.35498046875,0,0,0,0,0,0,25
0,1,32.395218,1902414082,9422088,1722,68567,0,245.976531982422,2052.421875,126.37939453125,0,0,0,0,0,0,25
0,1,32.443249,1902455488,9422810,1714,68567,0,247.1875,2052.3828125,126.37939453125,0,0,0,0,0,0,25
0,1,32.479245,1902497794,9423522,1686,68567,0,245.976531982422,2052.3828125,126.388549804688,0,0,0,0,0,0,25
0,1,32.524268,1902541085,9424256,1672,68567,0,247.1875,2052.57788085938,126.385498046875,0,0,0,0,0,0,25
0,1,32.567263,1902584351,9425004,1759,68567,0,246.054672241211,2052.3828125,126.394653320313,0,0,0,0,0,0,25
0,1,32.645275,1902625570,9425709,1740,68567,0,245.976531982422,2052.57788085938,126.382446289063,0,0,0,0,0,0,25
0,1,32.648278,1902667526,9426450,1726,68567,0,246.015609741211,2052.2265625,126.382446289063,0,0,0,0,0,0,25
0,1,32.687305,1902707909,9427149,1753,68567,0,245.976531982422,2052.3046875,126.37939453125,0,0,0,0,0,0,25
0,1,32.739317,1902749526,9427876,1728,68567,0,246.015609741211,2052.265625,126.385498046875,0,0,0,0,0,0,25
0,1,32.788324,1902792839,9428640,1781,68567,0,244.882797241211,2052.6171875,126.376342773438,0,0,0,0,0,0,25
0,1,32.820506,1902835415,9429371,1703,68567,0,244.765609741211,2052.2265625,126.3671875,0,0,0,0,0,0,25
0,1,32.857516,1902877253,9430096,1683,68567,0,245.976531982422,2052.421875,126.376342773438,0,0,0,0,0,0,25
0,1,32.953532,1902919752,9430836,1789,68567,0,247.1875,2052.03125,126.373291015625,0,0,0,0,0,0,25
0,1,32.956538,1902961529,9431558,1719,68567,0,244.765609741211,2052.3828125,126.385498046875,0,0,0,0,0,0,25
0,1,32.98453,1903004919,9432301,1709,68567,0,245.429672241211,2049.453125,126.220703125,0,0,0,0,0,0,25
0,1,33.03355,1903048258,9433024,1653,68567,0,245.390625,2049.140625,126.211547851563,0,0,0,0,0,0,25
0,1,33.073564,1903091698,9433755,1629,68567,0,245.390625,2049.41381835938,126.205444335938,0,0,0,0,0,0,25
0,1,33.121637,1903135168,9434512,1792,68567,0,244.179672241211,2048.75,126.202392578125,0,0,0,0,0,0,25
0,1,33.171649,1903187957,9435414,1682,68567,0,244.140625,2049.21875,126.214599609375,0,0,0,0,0,0,25
0,1,33.273652,1903260004,9436651,1708,68567,0,245.195297241211,2048.7890625,126.193237304688,0,0,0,0,0,0,25
0,1,33.286656,1903300955,9437365,1687,68567,0,245.390625,2049.140625,126.20849609375,0,0,0,0,0,0,25
0,1,33.321666,1903342244,9438086,1800,68567,0,245.351547241211,2049.17944335938,126.214599609375,0,0,0,0,0,0,25
0,1,33.373694,1903385895,9438839,1725,68567,0,245.2734375,2049.3359375,126.202392578125,0,0,0,0,0,0,25
0,1,33.417693,1903427719,9439567,1722,68567,0,246.445297241211,2048.6328125,126.18408203125,0,0,0,0,0,0,25
0,1,33.453713,1903471705,9440323,1736,68567,0,246.562484741211,2049.3359375,126.217651367188,0,0,0,0,0,0,25
0,1,33.505704,1903513565,9441052,1701,68567,0,245.234375,2048.984375,126.211547851563,0,0,0,0,0,0,25
0,1,33.588724,1903553813,9441746,1767,68567,0,245.2734375,2048.90600585938,126.205444335938,0,0,0,0,0,0,25
0,1,33.591723,1903594686,9442444,1735,68567,0,245.312484741211,2049.296875,126.217651367188,0,0,0,0,0,0,25
0,1,33.619734,1903635897,9443164,1730,68567,0,245.390625,2049.1015625,126.205444335938,0,0,0,0,0,0,25
0,1,33.65774,1903677942,9443885,1717,68567,0,245.390625,2049.21875,126.211547851563,0,0,0,0,0,0,25
0,1,33.698751,1903718213,9444586,1683,68567,0,245.390625,2049.0625,126.214599609375,0,0,0,0,0,0,25
0,1,33.74876,1903760016,9445302,1762,68567,0,244.101547241211,2049.140625,126.214599609375,0,0,0,0,0,0,25
0,1,33.783783,1903800320,9445985,1722,68567,0,244.374984741211,2048.90600585938,126.190185546875,0,0,0,0,0,0,25
0,1,33.825796,1903843400,9446733,1728,68567,0,245.312484741211,2049.17944335938,126.211547851563,0,0,0,0,0,0,25
0,1,33.900889,1903885637,9447457,1721,68567,0,245.234375,2049.0234375,126.205444335938,0,0,0,0,0,0,25
0,1,33.905885,1903926187,9448170,1699,68567,0,245.2734375,2049.21875,126.199340820313,0,0,0,0,0,0,25
0,1,33.952903,1903968313,9448908,1806,68567,0,246.015609741211,2048.8671875,126.199340820313,0,0,0,0,0,0,25
0,1,33.99591,1904008763,9449609,1738,68567,0,245.9375,2052.421875,126.385498046875,0,0,0,0,0,0,25
0,1,34.037901,1904051990,9450364,1730,68567,0,247.109359741211,2052.34350585938,126.3671875,0,0,0,0,0,0,25
0,1,34.073929,1904094529,9451103,1749,68567,0,247.304672241211,2052.6171875,126.382446289063,0,0,0,0,0,0,25
0,1,34.121253,1904141668,9451933,1729,68567,0,245.8203125,2051.9140625,126.348876953125,0,0,0,0,0,0,25
0,1,34.229478,1904183373,9452652,1738,68567,0,246.054672241211,2052.57788085938,126.385498046875,0,0,0,0,0,0,25
0,1,34.234285,1904227031,9453381,1646,68567,0,244.8046875,2052.1484375,126.373291015625,0,0,0,0,0,0,25
0,1,34.249264,1904269782,9454096,1616,68567,0,246.015609741211,2052.4609375,126.373291015625,0,0,0,0,0,0,25
0,1,34.290273,1904310130,9454778,1728,68567,0,246.015609741211,2052.34350585938,126.382446289063,0,0,0,0,0,0,25
0,1,34.339283,1904352816,9455506,1731,68567,0,247.2265625,2052.421875,126.382446289063,0,0,0,0,0,0,25
0,1,34.374292,1904394360,9456242,1792,68567,0,247.304672241211,2052.421875,126.382446289063,0,0,0,0,0,0,25
0,1,34.420302,1904437789,9457002,1756,68567,0,245.976531982422,2052.1484375,126.376342773438,0,0,0,0,0,0,25
0,1,34.463311,1904480882,9457775,1742,68567,0,247.2265625,2052.421875,126.385498046875,0,0,0,0,0,0,25
0,1,34.54343,1904524337,9458557,1842,68567,0,247.1875,2052.4609375,126.388549804688,0,0,0,0,0,0,25
0,1,34.546449,1904566547,9459302,1749,68567,0,247.109359741211,2052.265625,126.385498046875,0,0,0,0,0,0,25
0,1,34.590443,1904609163,9460054,1729,68567,0,247.0703125,2052.34350585938,126.370239257813,0,0,0,0,0,0,25
0,1,34.644455,1904650272,9460761,1721,68567,0,247.265609741211,2052.4609375,126.388549804688,0,0,0,0,0,0,25
0,1,34.742478,1904693777,9461506,1706,68567,0,247.109359741211,2052.57788085938,126.376342773438,0,0,0,0,0,0,25
0,1,34.805494,1904734277,9462193,1716,68567,0,247.031234741211,2051.9140625,126.358032226563,0,0,0,0,0,0,25
0,1,34.878509,1904776315,9462893,1671,68567,0,247.2265625,2052.4609375,126.382446289063,0,0,0,0,0,0,25
0,1,34.881512,1904818929,9463605,1636,68567,0,247.109359741211,2052.2265625,126.376342773438,0,0,0,0,0,0,25
0,1,34.884513,1904861356,9464320,1700,68567,0,247.2265625,2052.2265625,126.382446289063,0,0,0,0,0,0,25
0,1,34.886511,1904904841,9465063,1703,68567,0,246.015609741211,2052.3828125,126.376342773438,0,0,0,0,0,0,25
0,1,34.933524,1904948122,9465821,1767,68567,0,245.976531982422,2052.421875,126.376342773438,0,0,0,0,0,0,25
0,1,34.978532,1904989496,9466533,1730,68567,0,247.265609741211,2052.6953125,126.3916015625,0,0,0,0,0,0,25
0,1,35.016598,1905033005,9467291,1696,68567,0,245.2734375,2048.3203125,126.193237304688,0,0,0,0,0,0,25
0,1,35.054591,1905074288,9468019,1807,68567,0,246.484375,2049.1015625,126.205444335938,0,0,0,0,0,0,25
0,1,35.099605,1905114919,9468733,1742,68567,0,246.5234375,2049.1015625,126.20849609375,0,0,0,0,0,0,25
0,1,35.137608,1905157332,9469473,1750,68567,0,246.601547241211,2049.0234375,126.217651367188,0,0,0,0,0,0,25
0,1,35.204628,1905200363,9470202,1678,68567,0,245.351547241211,2048.75,126.199340820313,0,0,0,0,0,0,25
0,1,35.222629,1905242174,9470917,1655,68567,0,245.390625,2049.41381835938,126.220703125,0,0,0,0,0,0,25
0,1,35.27264,1905285885,9471672,1780,68567,0,246.562484741211,2049.3359375,126.211547851563,0,0,0,0,0,0,25
0,1,35.313709,1905326975,9472377,1739,68567,0,245.195297241211,2049.2578125,126.211547851563,0,0,0,0,0,0,25
0,1,35.3577,1905367463,9473086,1753,68567,0,245.156234741211,2049.1015625,126.205444335938,0,0,0,0,0,0,25
0,1,35.391694,1905409764,9473809,1702,68567,0,246.445297241211,2049.3359375,126.20849609375,0,0,0,0,0,0,25
0,1,35.441706,1905449868,9474507,1685,68567,0,247.2265625,2049.296875,126.223754882813,0,0,0,0,0,0,25
0,1,35.521814,1905490278,9475205,1774,68567,0,247.734375,2048.94506835938,126.220703125,0,0,0,0,0,0,25
0,1,35.524814,1905532390,9475930,1696,68567,0,247.656219482422,2048.984375,126.220703125,0,0,0,0,0,0,25
0,1,35.554819,1905575018,9476656,1718,68567,0,246.640625,2049.0234375,126.211547851563,0,0,0,0,0,0,25
0,1,35.602847,1905618522,9477385,1682,68567,0,246.484375,2049.2578125,126.214599609375,0,0,0,0,0,0,25
0,1,35.646845,1905660387,9478108,1668,68567,0,246.3671875,2048.94506835938,126.211547851563,0,0,0,0,0,0,25
0,1,35.68087,1905701102,9478824,1815,68567,0,247.578109741211,2049.140625,126.214599609375,0,0,0,0,0,0,25
0,1,35.727879,1905743124,9479564,1748,68567,0,246.562484741211,2049.2578125,126.217651367188,0,0,0,0,0,0,25
0,1,35.76589,1905785435,9480312,1769,68567,0,246.484375,2049.0234375,126.220703125,0,0,0,0,0,0,25
0,1,35.83694,1905826694,9481018,1691,68567,0,246.562484741211,2049.1015625,126.214599609375,0,0,0,0,0,0,25
0,1,35.856016,1905869437,9481755,1670,68567,0,246.484375,2049.0234375,126.220703125,0,0,0,0,0,0,25
0,1,35.891022,1905909739,9482436,1728,68567,0,247.695297241211,2049.296875,126.205444335938,0,0,0,0,0,0,25
0,1,35.944031,1905951852,9483140,1672,68567,0,246.5234375,2049.375,126.211547851563,0,0,0,0,0,0,25
0,1,35.990046,1905993890,9483848,1697,68567,0,246.484375,2049.17944335938,126.211547851563,0,0,0,0,0,0,25
0,1,36.022351,1906034697,9484530,1704,68567,0,247.1875,2052.2265625,126.376342773438,0,0,0,0,0,0,25
0,1,36.05436,1906074818,9485227,1699,68567,0,247.148422241211,2052.5,126.388549804688,0,0,0,0,0,0,25
0,1,36.099384,1906119361,9485993,1773,68567,0,248.3203125,2052.4609375,126.376342773438,0,0,0,0,0,0,25
0,1,36.172386,1906161677,9486730,1758,68567,0,248.4375,2052.421875,126.388549804688,0,0,0,0,0,0,25
0,1,36.189404,1906205105,9487508,1794,68567,0,248.4375,2052.5390625,126.37939453125,0,0,0,0,0,0,25
0,1,36.229409,1906249059,9488275,1740,68567,0,248.4375,2052.4609375,126.37939453125,0,0,0,0,0,0,25
0,1,36.279403,1906292649,9489045,1718,68567,0,248.359359741211,2052.6953125,126.388549804688,0,0,0,0,0,0,25
0,1,36.317414,1906338183,9489831,1751,68567,0,247.2265625,2052.1875,126.3916015625,0,0,0,0,0,0,25
0,1,36.366441,1906379055,9490515,1658,68567,0,248.359359741211,2052.3046875,126.37939453125,0,0,0,0,0,0,25
0,1,36.407454,1906422652,9491248,1638,68567,0,245.976531982422,2052.5390625,126.385498046875,0,0,0,0,0,0,25
0,1,36.486451,1906466163,9491976,1719,68567,0,248.4375,2052.65625,126.397705078125,0,0,0,0,0,0,25
0,1,36.489467,1906509880,9492715,1700,68567,0,248.4375,2052.57788085938,126.385498046875,0,0,0,0,0,0,25
0,1,36.537483,1906553559,9493474,1749,68567,0,247.2265625,2052.6171875,126.394653320313,0,0,0,0,0,0,25
0,1,36.582494,1906594377,9494166,1698,68567,0,245.898422241211,2052.6171875,126.376342773438,0,0,0,0,0,0,25
0,1,36.624498,1906637652,9494919,1680,68567,0,247.109359741211,2051.796875,126.361083984375,0,0,0,0,0,0,25
0,1,36.661506,1906681363,9495690,1836,68567,0,248.359359741211,2052.6953125,126.388549804688,0,0,0,0,0,0,25
0,1,36.711505,1906723037,9496419,1729,68567,0,248.359359741211,2052.3828125,126.394653320313,0,0,0,0,0,0,25
0,1,36.793521,1906766483,9497177,1729,68567,0,248.398422241211,2052.9296875,126.394653320313,0,0,0,0,0,0,25
0,1,36.796537,1906810208,9497922,1715,68567,0,248.4375,2052.6171875,126.397705078125,0,0,0,0,0,0,25
0,1,36.836536,1906850773,9498621,1682,68567,0,247.304672241211,2052.6171875,126.394653320313,0,0,0,0,0,0,25
0,1,36.872543,1906892378,9499344,1780,68567,0,247.2265625,2052.4609375,126.388549804688,0,0,0,0,0,0,25
0,1,36.921551,1906936041,9500086,1693,68567,0,248.398422241211,2052.265625,126.385498046875,0,0,0,0,0,0,25
0,1,36.959563,1906978923,9500820,1677,68567,0,247.1875,2052.0703125,126.382446289063,0,0,0,0,0,0,25
0,1,37.009573,1907022179,9501560,1747,68567,0,246.562484741211,2049.453125,126.217651367188,0,0,0,0,0,0,25
0,1,37.052595,1907069502,9502378,1720,68567,0,245.195297241211,2048.6328125,126.1962890625,0,0,0,0,0,0,25
0,1,37.126617,1907113326,9503136,1718,68567,0,247.7734375,2049.3359375,126.217651367188,0,0,0,0,0,0,25
0,1,37.134613,1907153850,9503826,1704,68567,0,247.695297241211,2049.0625,126.211547851563,0,0,0,0,0,0,25
0,1,37.181615,1907196898,9504574,1679,68567,0,247.695297241211,2049.140625,126.220703125,0,0,0,0,0,0,25
0,1,37.228735,1907240442,9505314,1746,68567,0,247.734375,2049.3359375,126.226806640625,0,0,0,0,0,0,25
0,1,37.267729,1907283814,9506046,1727,68567,0,247.695297241211,2049.140625,126.217651367188,0,0,0,0,0,0,25
0,1,37.314736,1907325736,9506776,1720,68567,0,247.6171875,2049.0625,126.202392578125,0,0,0,0,0,0,25
0,1,37.355746,1907368834,9507522,1753,68567,0,247.812484741211,2049.1015625,126.205444335938,0,0,0,0,0,0,25
0,1,37.427776,1907408925,9508228,1712,68567,0,246.484375,2049.17944335938,126.217651367188,0,0,0,0,0,0,25
0,1,37.432777,1907452352,9508979,1767,68567,0,246.562484741211,2049.2578125,126.217651367188,0,0,0,0,0,0,25
0,1,37.476984,1907494318,9509691,1702,68567,0,247.7734375,2049.17944335938,126.226806640625,0,0,0,0,0,0,25
0,1,37.525802,1907538782,9510457,1681,68567,0,247.695297241211,2049.21875,126.217651367188,0,0,0,0,0,0,25
0,1,37.568793,1907581083,9511167,1706,68567,0,247.5,2048.94506835938,126.193237304688,0,0,0,0,0,0,25
0,1,37.602815,1907622310,9511863,1682,68567,0,247.734375,2049.3359375,126.214599609375,0,0,0,0,0,0,25
0,1,37.650825,1907664075,9512592,1783,68567,0,247.695297241211,2048.984375,126.202392578125,0,0,0,0,0,0,25
0,1,37.72383,1907706206,9513319,1749,68567,0,247.695297241211,2048.984375,126.220703125,0,0,0,0,0,0,25
0,1,37.726829,1907746866,9514043,1745,68567,0,247.812484741211,2049.140625,126.217651367188,0,0,0,0,0,0,25
0,1,37.76984,1907787078,9514739,1741,68567,0,247.812484741211,2049.453125,126.235961914063,0,0,0,0,0,0,25
0,1,37.818848,1907829464,9515478,1719,68567,0,247.656219482422,2049.0234375,126.220703125,0,0,0,0,0,0,25
0,1,37.849858,1907870540,9516198,1784,68567,0,246.445297241211,2048.515625,126.193237304688,0,0,0,0,0,0,25
0,1,37.892881,1907910951,9516886,1687,68567,0,247.7734375,2049.17944335938,126.223754882813,0,0,0,0,0,0,25
0,1,37.939897,1907953294,9517608,1674,68567,0,247.695297241211,2048.90600585938,126.202392578125,0,0,0,0,0,0,25
0,1,37.973887,1907993409,9518271,1642,68567,0,247.578109741211,2049.1015625,126.205444335938,0,0,0,0,0,0,25
0,1,38.035914,1908035495,9518974,1617,68567,0,248.3203125,2052.5390625,126.3916015625,0,0,0,0,0,0,25
0,1,38.064911,1908080735,9519757,1775,68567,0,247.2265625,2052.34350585938,126.382446289063,0,0,0,0,0,0,25
0,1,38.103934,1908123302,9520479,1696,68567,0,249.648422241211,2052.3046875,126.37939453125,0,0,0,0,0,0,25
0,1,38.150939,1908164313,9521184,1694,68567,0,249.492172241211,2052.34350585938,126.382446289063,0,0,0,0,0,0,25
0,1,38.190953,1908211154,9521989,1779,68567,0,248.281234741211,2051.6796875,126.3671875,0,0,0,0,0,0,25
0,1,38.237964,1908254221,9522738,1705,68567,0,249.6875,2052.3046875,126.388549804688,0,0,0,0,0,0,25
0,1,38.281959,1908297547,9523481,1726,68567,0,248.3203125,2052.4609375,126.385498046875,0,0,0,0,0,0,25
0,1,38.351971,1908339021,9524175,1667,68567,0,248.398422241211,2052.5,126.394653320313,0,0,0,0,0,0,25
0,1,38.367973,1908381554,9524902,1653,68567,0,248.3203125,2052.421875,126.385498046875,0,0,0,0,0,0,25
0,1,38.407003,1908422277,9525602,1770,68567,0,248.4765625,2052.734375,126.400756835938,0,0,0,0,0,0,25
0,1,38.454008,1908463259,9526307,1688,68567,0,249.5703125,2052.421875,126.385498046875,0,0,0,0,0,0,25
0,1,38.493022,1908506641,9527043,1718,68567,0,248.242172241211,2051.796875,126.345825195313,0,0,0,0,0,0,25
0,1,38.538014,1908549833,9527770,1699,68567,0,248.398422241211,2052.5,126.385498046875,0,0,0,0,0,0,25
0,1,38.57923,1908592366,9528510,1684,68567,0,248.4375,2052.6171875,126.394653320313,0,0,0,0,0,0,25
0,1,38.648246,1908634164,9529228,1771,68567,0,249.5703125,2052.265625,126.385498046875,0,0,0,0,0,0,25
0,1,38.656243,1908676210,9529949,1709,68567,0,248.3203125,2052.421875,126.382446289063,0,0,0,0,0,0,25
0,1,38.703255,1908717808,9530668,1739,68567,0,248.398422241211,2052.5390625,126.397705078125,0,0,0,0,0,0,25
0,1,38.746283,1908761263,9531402,1689,68567,0,248.281234741211,2052.2265625,126.388549804688,0,0,0,0,0,0,25
0,1,38.787293,1908804279,9532146,1669,68567,0,248.359359741211,2052.57788085938,126.394653320313,0,0,0,0,0,0,25
0,1,38.826284,1908846452,9532888,1820,68567,0,249.648422241211,2052.57788085938,126.3916015625,0,0,0,0,0,0,25
0,1,38.877313,1908889512,9533638,1732,68567,0,248.398422241211,2052.3046875,126.394653320313,0,0,0,0,0,0,25
0,1,38.947418,1908929674,9534340,1740,68567,0,248.359359741211,2052.2265625,126.3916015625,0,0,0,0,0,0,25
0,1,38.953445,1908972593,9535071,1696,68567,0,248.515609741211,2052.6171875,126.397705078125,0,0,0,0,0,0,25
0,1,39.016432,1909030785,9536075,1730,68567,0,249.5703125,2051.9921875,126.376342773438,0,0,0,0,0,0,25
0,1,39.069465,1909084655,9537008,1688,68567,0,248.945297241211,2049.21875,126.214599609375,0,0,0,0,0,0,25
0,1,39.117458,1909127959,9537762,1778,68567,0,247.734375,2049.0625,126.217651367188,0,0,0,0,0,0,25
0,1,39.152463,1909171384,9538506,1724,68567,0,248.906219482422,2049.296875,126.217651367188,0,0,0,0,0,0,25
0,1,39.193472,1909212249,9539220,1713,68567,0,248.945297241211,2049.3359375,126.220703125,0,0,0,0,0,0,25
0,1,39.260486,1909253143,9539919,1720,68567,0,248.945297241211,2049.375,126.229858398438,0,0,0,0,0,0,25
0,1,39.278493,1909294357,9540629,1680,68567,0,247.695297241211,2048.90600585938,126.223754882813,0,0,0,0,0,0,25
0,1,39.317503,1909336817,9541358,1756,68567,0,247.695297241211,2049.140625,126.211547851563,0,0,0,0,0,0,25
0,1,39.366511,1909380221,9542090,1698,68567,0,247.734375,2048.94506835938,126.217651367188,0,0,0,0,0,0,25
0,1,39.403521,1909423590,9542835,1680,68567,0,247.695297241211,2048.94506835938,126.223754882813,0,0,0,0,0,0,25
0,1,39.450545,1909465063,9543537,1717,68567,0,247.695297241211,2049.296875,126.211547851563,0,0,0,0,0,0,25
0,1,39.491556,1909508239,9544277,1700,68567,0,248.984359741211,2049.296875,126.217651367188,0,0,0,0,0,0,25
0,1,39.559575,1909549965,9545008,1784,68567,0,247.734375,2049.21875,126.220703125,0,0,0,0,0,0,25
0,1,39.575578,1909590685,9545706,1719,68567,0,248.945297241211,2048.90600585938,126.223754882813,0,0,0,0,0,0,25
0,1,39.617571,1909634365,9546469,1703,68567,0,247.7734375,2049.296875,126.229858398438,0,0,0,0,0,0,25
0,1,39.664595,1909677935,9547210,1742,68567,0,248.828109741211,2048.43725585938,126.193237304688,0,0,0,0,0,0,25
0,1,39.700603,1909719834,9547924,1706,68567,0,248.945297241211,2049.0625,126.226806640625,0,0,0,0,0,0,25
0,1,39.747598,1909762420,9548662,1747,68567,0,247.656219482422,2049.0625,126.214599609375,0,0,0,0,0,0,25
0,1,39.787631,1909803790,9549369,1719,68567,0,248.984359741211,2048.984375,126.20849609375,0,0,0,0,0,0,25
0,1,39.858643,1909846411,9550116,1701,68567,0,248.945297241211,2049.3359375,126.223754882813,0,0,0,0,0,0,25
0,1,39.87563,1909889572,9550869,1799,68567,0,248.8671875,2048.7109375,126.217651367188,0,0,0,0,0,0,25
0,1,39.910655,1909930371,9551572,1709,68567,0,247.695297241211,2049.140625,126.226806640625,0,0,0,0,0,0,25
0,1,39.958079,1909972425,9552292,1716,68567,0,248.906219482422,2049.296875,126.235961914063,0,0,0,0,0,0,25
0,1,40.003085,1910015770,9553024,1693,68567,0,248.3203125,2051.87475585938,126.373291015625,0,0,0,0,0,0,25
0,1,40.039093,1910059317,9553779,1674,68567,0,250.703094482422,2052.4609375,126.397705078125,0,0,0,0,0,0,25
0,1,40.085088,1910101725,9554504,1764,68567,0,249.531234741211,2051.9921875,126.385498046875,0,0,0,0,0,0,25
0,1,40.151118,1910147060,9555276,1730,68567,0,250.820281982422,2052.1875,126.3916015625,0,0,0,0,0,0,25
0,1,40.183113,1910190208,9556032,1717,68567,0,249.609344482422,2052.0703125,126.397705078125,0,0,0,0,0,0,25
0,1,40.213138,1910233461,9556779,1769,68567,0,249.5703125,2052.34350585938,126.385498046875,0,0,0,0,0,0,25
0,1,40.254147,1910273988,9557485,1729,68567,0,249.5703125,2052.34350585938,126.394653320313,0,0,0,0,0,0,25
0,1,40.302138,1910314015,9558193,1801,68567,0,248.4375,2052.4609375,126.419067382813,0,0,0,0,0,0,25
0,1,40.336146,1910356705,9558926,1693,68567,0,249.5703125,2052.1484375,126.397705078125,0,0,0,0,0,0,25
0,1,40.382158,1910398268,9559641,1680,68567,0,249.531234741211,2052.7734375,126.406860351563,0,0,0,0,0,0,25
0,1,40.421188,1910441600,9560363,1685,68567,0,250.781234741211,2052.5390625,126.406860351563,0,0,0,0,0,0,25
0,1,40.476199,1910488539,9561147,1689,68567,0,248.3203125,2051.796875,126.382446289063,0,0,0,0,0,0,25
0,1,40.516367,1910531462,9561882,1716,68567,0,249.609344482422,2052.81225585938,126.416015625,0,0,0,0,0,0,25
0,1,40.561402,1910572430,9562579,1723,68567,0,248.3203125,2052.10913085938,126.394653320313,0,0,0,0,0,0,25
0,1,40.633403,1910614019,9563311,1709,68567,0,249.531234741211,2052.2265625,126.406860351563,0,0,0,0,0,0,25
0,1,40.683426,1910657690,9564086,1834,68567,0,250.6640625,2051.7578125,126.37939453125,0,0,0,0,0,0,25
0,1,40.703434,1910700090,9564828,1729,68567,0,248.359359741211,2052.10913085938,126.400756835938,0,0,0,0,0,0,25
0,1,40.721438,1910741726,9565553,1727,68567,0,249.492172241211,2052.34350585938,126.397705078125,0,0,0,0,0,0,25
0,1,40.778453,1910784949,9566281,1672,68567,0,249.531234741211,2052.4609375,126.412963867188,0,0,0,0,0,0,25
0,1,40.806458,1910826226,9566981,1644,68567,0,249.648422241211,2052.6953125,126.412963867188,0,0,0,0,0,0,25
0,1,40.847447,1910867612,9567687,1756,68567,0,248.359359741211,2052.34350585938,126.400756835938,0,0,0,0,0,0,25
0,1,40.898459,1910911178,9568428,1746,68567,0,248.359359741211,2052.3046875,126.40380859375,0,0,0,0,0,0,25
0,1,40.940467,1910952829,9569160,1742,68567,0,249.531234741211,2051.9140625,126.382446289063,0,0,0,0,0,0,25
0,1,40.976476,1910996110,9569904,1727,68567,0,248.4375,2052.4609375,126.40380859375,0,0,0,0,0,0,25
0,1,41.027489,1911039850,9570665,1698,68567,0,247.656219482422,2049.5703125,126.2451171875,0,0,0,0,0,0,25
0,1,41.10347,1911083535,9571413,1737,68567,0,246.640625,2049.375,126.235961914063,0,0,0,0,0,0,25
0,1,41.106472,1911125278,9572110,1670,68567,0,247.734375,2049.0625,126.2451171875,0,0,0,0,0,0,25
0,1,41.151496,1911168879,9572849,1650,68567,0,247.734375,2049.3359375,126.23291015625,0,0,0,0,0,0,25
0,1,41.200491,1911209959,9573553,1749,68567,0,247.734375,2049.21875,126.242065429688,0,0,0,0,0,0,25
0,1,41.255524,1911253341,9574310,1747,68567,0,247.656219482422,2049.17944335938,126.239013671875,0,0,0,0,0,0,25
0,1,41.317975,1911296940,9575086,1789,68567,0,247.695297241211,2049.0234375,126.239013671875,0,0,0,0,0,0,25
0,1,41.33998,1911340296,9575840,1730,68567,0,246.484375,2048.43725585938,126.202392578125,0,0,0,0,0,0,25
0,1,41.413997,1911382524,9576585,1712,68567,0,247.734375,2049.2578125,126.239013671875,0,0,0,0,0,0,25
0,1,41.417011,1911424911,9577335,1812,68567,0,247.7734375,2049.140625,126.235961914063,0,0,0,0,0,0,25
0,1,41.447003,1911466902,9578063,1722,68567,0,247.695297241211,2049.21875,126.226806640625,0,0,0,0,0,0,25
0,1,41.501031,1911510417,9578816,1701,68567,0,247.734375,2049.2578125,126.235961914063,0,0,0,0,0,0,25
0,1,41.555302,1911554094,9579558,1719,68567,0,247.734375,2049.1015625,126.235961914063,0,0,0,0,0,0,25
0,1,41.608048,1911596704,9580284,1693,68567,0,247.734375,2049.140625,126.229858398438,0,0,0,0,0,0,25
0,1,41.637054,1911638397,9580998,1739,68567,0,247.6171875,2048.8671875,126.217651367188,0,0,0,0,0,0,25
0,1,41.712271,1911679936,9581691,1663,68567,0,247.734375,2049.0234375,126.23291015625,0,0,0,0,0,0,25
0,1,41.715068,1911723211,9582417,1643,68567,0,247.695297241211,2048.984375,126.23291015625,0,0,0,0,0,0,25
0,1,41.753075,1911770185,9583221,1778,68567,0,250.078140258789,2048.828125,126.211547851563,0,0,0,0,0,0,25
0,1,41.802087,1911812002,9583946,1764,68567,0,247.7734375,2049.453125,126.251220703125,0,0,0,0,0,0,25
0,1,41.852104,1911855289,9584718,1782,68567,0,247.656219482422,2048.984375,126.239013671875,0,0,0,0,0,0,25
0,1,41.882678,1911896282,9585434,1736,68567,0,246.484375,2049.1015625,126.217651367188,0,0,0,0,0,0,25
0,1,41.919688,1911939620,9586200,1720,68567,0,247.812484741211,2049.21875,126.239013671875,0,0,0,0,0,0,25
0,1,42.006727,1911982614,9586961,1808,68567,0,247.6171875,2048.8671875,126.220703125,0,0,0,0,0,0,25
0,1,42.020729,1912023727,9587673,1719,68567,0,249.492172241211,2052.265625,126.400756835938,0,0,0,0,0,0,25
0,1,42.049747,1912067270,9588424,1693,68567,0,248.515609741211,2052.3046875,126.40380859375,0,0,0,0,0,0,25
0,1,42.093727,1912109558,9589146,1722,68567,0,248.359359741211,2052.4609375,126.400756835938,0,0,0,0,0,0,25
0,1,42.140738,1912153336,9589894,1690,68567,0,248.398422241211,2052.0703125,126.400756835938,0,0,0,0,0,0,25
0,1,42.180747,1912195760,9590609,1702,68567,0,248.281234741211,2052.10913085938,126.388549804688,0,0,0,0,0,0,25
0,1,42.227757,1912241552,9591376,1696,68567,0,248.398422241211,2052.57788085938,126.412963867188,0,0,0,0,0,0,25
0,1,42.268772,1912282355,9592080,1678,68567,0,248.4375,2052.265625,126.394653320313,0,0,0,0,0,0,25
0,1,42.343783,1912325863,9592824,1755,68567,0,249.609344482422,2052.57788085938,126.412963867188,0,0,0,0,0,0,25
0,1,42.350787,1912369357,9593568,1739,68567,0,247.148422241211,2052.265625,126.394653320313,0,0,0,0,0,0,25
0,1,42.390795,1912410932,9594297,1756,68567,0,248.398422241211,2052.421875,126.416015625,0,0,0,0,0,0,25
0,1,42.441827,1912454266,9595043,1722,68567,0,248.359359741211,2052.421875,126.406860351563,0,0,0,0,0,0,25
0,1,42.489215,1912495549,9595770,1701,68567,0,249.648422241211,2052.421875,126.412963867188,0,0,0,0,0,0,25
0,1,42.520238,1912538821,9596519,1783,68567,0,248.359359741211,2052.3828125,126.397705078125,0,0,0,0,0,0,25
0,1,42.572248,1912584357,9597292,1681,68567,0,248.3203125,2052.0703125,126.385498046875,0,0,0,0,0,0,25
0,1,42.646248,1912627753,9598031,1668,68567,0,248.3203125,2052.5,126.406860351563,0,0,0,0,0,0,25
0,1,42.649263,1912669312,9598733,1711,68567,0,248.398422241211,2052.7734375,126.416015625,0,0,0,0,0,0,25
0,1,42.691355,1912711590,9599457,1687,68567,0,248.4375,2052.6171875,126.406860351563,0,0,0,0,0,0,25
0,1,42.746366,1912754817,9600213,1780,68567,0,248.359359741211,2052.57788085938,126.416015625,0,0,0,0,0,0,25
0,1,42.786371,1912797963,9600959,1744,68567,0,248.242172241211,2052.1875,126.382446289063,0,0,0,0,0,0,25
0,1,42.818382,1912838944,9601689,1735,68567,0,248.3203125,2052.5,126.400756835938,0,0,0,0,0,0,25
0,1,42.867376,1912880179,9602416,1809,68567,0,248.4375,2052.1875,126.412963867188,0,0,0,0,0,0,25
0,1,42.942411,1912926345,9603226,1730,68567,0,248.242172241211,2052.10913085938,126.382446289063,0,0,0,0,0,0,25
0,1,42.946407,1912966388,9603922,1732,68567,0,248.359359741211,2052.57788085938,126.40380859375,0,0,0,0,0,0,25
0,1,42.994418,1913009515,9604649,1667,68567,0,247.7734375,2049.453125,126.248168945313,0,0,0,0,0,0,25
0,1,43.040415,1913050447,9605342,1639,68567,0,247.6171875,2048.984375,126.23291015625,0,0,0,0,0,0,25
0,1,43.078437,1913093885,9606078,1742,68567,0,247.695297241211,2048.984375,126.242065429688,0,0,0,0,0,0,25
0,1,43.117451,1913136435,9606798,1747,68567,0,247.656219482422,2049.17944335938,126.248168945313,0,0,0,0,0,0,25
0,1,43.162442,1913177686,9607521,1746,68567,0,248.906219482422,2048.90600585938,126.239013671875,0,0,0,0,0,0,25
0,1,43.202472,1913221078,9608268,1719,68567,0,247.695297241211,2049.17944335938,126.226806640625,0,0,0,0,0,0,25
0,1,43.258462,1913264386,9609024,1699,68567,0,247.7734375,2049.17944335938,126.235961914063,0,0,0,0,0,0,25
0,1,43.289469,1913305378,9609740,1790,68567,0,247.695297241211,2049.1015625,126.242065429688,0,0,0,0,0,0,25
0,1,43.33448,1913347315,9610455,1693,68567,0,248.8671875,2049.41381835938,126.2451171875,0,0,0,0,0,0,25
0,1,43.378509,1913392045,9611219,1677,68567,0,247.7734375,2049.17944335938,126.23291015625,0,0,0,0,0,0,25
0,1,43.416514,1913436038,9611947,1671,68567,0,248.828109741211,2048.94506835938,126.220703125,0,0,0,0,0,0,25
0,1,43.462149,1913479505,9612669,1650,68567,0,248.8671875,2049.21875,126.229858398438,0,0,0,0,0,0,25
0,1,43.503159,1913520153,9613365,1755,68567,0,247.695297241211,2048.7890625,126.226806640625,0,0,0,0,0,0,25
0,1,43.568174,1913563205,9614097,1741,68567,0,248.984359741211,2048.90600585938,126.223754882813,0,0,0,0,0,0,25
0,1,43.587178,1913606619,9614866,1730,68567,0,247.6171875,2049.1015625,126.229858398438,0,0,0,0,0,0,25
0,1,43.634189,1913649595,9615626,1828,68567,0,248.945297241211,2049.0625,126.229858398438,0,0,0,0,0,0,25
0,1,43.675197,1913690117,9616345,1749,68567,0,247.851547241211,2049.5703125,126.254272460938,0,0,0,0,0,0,25
0,1,43.71621,1913733845,9617112,1752,68567,0,247.656219482422,2048.94506835938,126.239013671875,0,0,0,0,0,0,25
0,1,43.755215,1913775304,9617822,1702,68567,0,247.695297241211,2049.0625,126.23291015625,0,0,0,0,0,0,25
0,1,43.806229,1913818627,9618573,1685,68567,0,248.945297241211,2049.0234375,126.235961914063,0,0,0,0,0,0,25
0,1,43.874243,1913863713,9619359,1777,68567,0,247.6171875,2048.8671875,126.20849609375,0,0,0,0,0,0,25
0,1,43.888246,1913903969,9620044,1692,68567,0,248.8671875,2049.3359375,126.235961914063,0,0,0,0,0,0,25
0,1,43.931258,1913945548,9620748,1677,68567,0,248.906219482422,2048.8671875,126.242065429688,0,0,0,0,0,0,25
0,1,43.976267,1913987024,9621437,1655,68567,0,248.945297241211,2049.3359375,126.235961914063,0,0,0,0,0,0,25
0,1,44.016229,1914030226,9622168,1629,68567,0,249.374984741211,2051.953125,126.388549804688,0,0,0,0,0,0,25
0,1,44.051252,1914071672,9622874,1764,68567,0,248.359359741211,2052.4609375,126.406860351563,0,0,0,0,0,0,25
0,1,44.096262,1914112721,9623571,1730,68567,0,248.3203125,2052.3828125,126.406860351563,0,0,0,0,0,0,25
0,1,44.134271,1914154426,9624303,1759,68567,0,248.398422241211,2052.734375,126.397705078125,0,0,0,0,0,0,25
0,1,44.198288,1914195554,9625013,1732,68567,0,248.4375,2052.2265625,126.412963867188,0,0,0,0,0,0,25
0,1,44.218293,1914236938,9625748,1721,68567,0,248.3203125,2052.0703125,126.400756835938,0,0,0,0,0,0,25
0,1,44.260299,1914280218,9626503,1794,68567,0,248.515609741211,2052.57788085938,126.406860351563,0,0,0,0,0,0,25
0,1,44.310311,1914323302,9627226,1664,68567,0,248.4375,2052.3046875,126.406860351563,0,0,0,0,0,0,25
0,1,44.345319,1914364834,9627924,1667,68567,0,250.742202758789,2052.34350585938,126.416015625,0,0,0,0,0,0,25
0,1,44.39533,1914407448,9628619,1630,68567,0,248.4375,2052.2265625,126.40380859375,0,0,0,0,0,0,25
0,1,44.437342,1914452721,9629375,1609,68567,0,249.492172241211,2052.1484375,126.397705078125,0,0,0,0,0,0,25
0,1,44.509356,1914496155,9630133,1810,68567,0,248.398422241211,2052.3828125,126.416015625,0,0,0,0,0,0,25
0,1,44.524359,1914539402,9630882,1744,68567,0,249.5703125,2052.3828125,126.40380859375,0,0,0,0,0,0,25
0,1,44.565371,1914580401,9631610,1751,68567,0,249.492172241211,2052.1484375,126.40380859375,0,0,0,0,0,0,25
0,1,44.61138,1914623958,9632362,1748,68567,0,248.398422241211,2052.5,126.412963867188,0,0,0,0,0,0,25
0,1,44.651388,1914665261,9633079,1704,68567,0,248.281234741211,2052.03125,126.376342773438,0,0,0,0,0,0,25
0,1,44.685775,1914705955,9633778,1753,68567,0,248.398422241211,2052.4609375,126.406860351563,0,0,0,0,0,0,25
0,1,44.735782,1914749176,9634505,1671,68567,0,249.531234741211,2052.57788085938,126.397705078125,0,0,0,0,0,0,25
0,1,44.812804,1914792496,9635234,1647,68567,0,248.398422241211,2052.1875,126.416015625,0,0,0,0,0,0,25
0,1,44.815787,1914833108,9635927,1724,68567,0,249.648422241211,2052.3046875,126.40380859375,0,0,0,0,0,0,25
0,1,44.856809,1914876426,9636679,1731,68567,0,249.492172241211,2052.34350585938,126.400756835938,0,0,0,0,0,0,25
0,1,44.919828,1914932276,9637665,1731,68567,0,248.359359741211,2052.6953125,126.406860351563,0,0,0,0,0,0,25
0,1,44.986822,1915003943,9638895,1668,68567,0,248.359359741211,2051.71875,126.385498046875,0,0,0,0,0,0,25
0,1,45.027834,1915046568,9639604,1694,68567,0,248.945297241211,2049.21875,126.229858398438,0,0,0,0,0,0,25
0,1,45.068281,1915088040,9640292,1676,68567,0,248.945297241211,2049.140625,126.239013671875,0,0,0,0,0,0,25
0,1,45.132301,1915129172,9641000,1752,68567,0,247.7734375,2049.296875,126.235961914063,0,0,0,0,0,0,25
0,1,45.157503,1915172550,9641733,1700,68567,0,247.695297241211,2049.0625,126.226806640625,0,0,0,0,0,0,25
0,1,45.198317,1915218048,9642519,1671,68567,0,247.695297241211,2049.296875,126.239013671875,0,0,0,0,0,0,25
0,1,45.242326,1915261973,9643301,1842,68567,0,247.695297241211,2049.17944335938,126.242065429688,0,0,0,0,0,0,25
0,1,45.291317,1915303324,9644032,1765,68567,0,246.601547241211,2049.3359375,126.239013671875,0,0,0,0,0,0,25
0,1,45.324327,1915343873,9644754,1768,68567,0,247.734375,2049.3359375,126.235961914063,0,0,0,0,0,0,25
0,1,45.367349,1915387410,9645505,1717,68567,0,248.8671875,2049.21875,126.239013671875,0,0,0,0,0,0,25
0,1,45.432477,1915429250,9646229,1694,68567,0,248.945297241211,2049.0234375,126.239013671875,0,0,0,0,0,0,25
0,1,45.450477,1915470642,9646945,1765,68567,0,247.7734375,2049.4921875,126.2451171875,0,0,0,0,0,0,25
0,1,45.498492,1915514045,9647679,1680,68567,0,247.734375,2049.0234375,126.239013671875,0,0,0,0,0,0,25
0,1,45.538574,1915556801,9648399,1654,68567,0,247.695297241211,2049.17944335938,126.229858398438,0,0,0,0,0,0,25
0,1,45.589605,1915600497,9649118,1645,68567,0,247.851547241211,2049.0625,126.23291015625,0,0,0,0,0,0,25
0,1,45.623617,1915643894,9649835,1636,68567,0,247.734375,2049.0625,126.242065429688,0,0,0,0,0,0,25
0,1,45.668627,1915688368,9650592,1728,68567,0,247.695297241211,2049.17944335938,126.23291015625,0,0,0,0,0,0,25
0,1,45.730622,1915728767,9651278,1752,68567,0,248.984359741211,2049.21875,126.242065429688,0,0,0,0,0,0,25
0,1,45.751628,1915770703,9652017,1733,68567,0,248.906219482422,2049.0234375,126.235961914063,0,0,0,0,0,0,25
0,1,45.799641,1915813758,9652772,1787,68567,0,247.7734375,2049.375,126.248168945313,0,0,0,0,0,0,25
0,1,45.836645,1915855219,9653504,1745,68567,0,247.734375,2049.0234375,126.239013671875,0,0,0,0,0,0,25
0,1,45.885677,1915898750,9654269,1766,68567,0,247.695297241211,2049.1015625,126.23291015625,0,0,0,0,0,0,25
0,1,45.920685,1915940039,9654986,1741,68567,0,247.734375,2049.140625,126.239013671875,0,0,0,0,0,0,25
0,1,45.962694,1915983164,9655749,1721,68567,0,248.906219482422,2049.1015625,126.248168945313,0,0,0,0,0,0,25
0,1,46.029709,1916026562,9656498,1765,68567,0,248.4375,2052.57788085938,126.416015625,0,0,0,0,0,0,25
0,1,46.046713,1916067003,9657184,1692,68567,0,248.359359741211,2052.3046875,126.409912109375,0,0,0,0,0,0,25
0,1,46.092725,1916108597,9657887,1689,68567,0,249.609344482422,2052.265625,126.409912109375,0,0,0,0,0,0,25
0,1,46.141715,1916154410,9658641,1628,68567,0,248.515609741211,2052.265625,126.400756835938,0,0,0,0,0,0,25
0,1,46.179744,1916196253,9659334,1597,68567,0,248.4375,2052.4609375,126.406860351563,0,0,0,0,0,0,25
0,1,46.22687,1916239339,9660059,1739,68567,0,248.359359741211,2052.3828125,126.412963867188,0,0,0,0,0,0,25
0,1,46.26788,1916280661,9660756,1740,68567,0,248.4375,2052.65625,126.412963867188,0,0,0,0,0,0,25
0,1,46.342878,1916322387,9661491,1767,68567,0,248.398422241211,2052.734375,126.425170898438,0,0,0,0,0,0,25
0,1,46.345874,1916363033,9662194,1731,68567,0,248.4375,2052.4609375,126.400756835938,0,0,0,0,0,0,25
0,1,46.38488,1916404746,9662932,1717,68567,0,248.398422241211,2052.5,126.416015625,0,0,0,0,0,0,25
0,1,46.438892,1916447889,9663675,1770,68567,0,248.4375,2052.3828125,126.416015625,0,0,0,0,0,0,25
0,1,46.485903,1916491056,9664410,1694,68567,0,248.4765625,2052.5,126.409912109375,0,0,0,0,0,0,25
0,1,46.520911,1916534844,9665155,1686,68567,0,249.492172241211,2052.3828125,126.406860351563,0,0,0,0,0,0,25
0,1,46.55792,1916577498,9665877,1700,68567,0,249.492172241211,2052.57788085938,126.409912109375,0,0,0,0,0,0,25
0,1,46.65194,1916623599,9666674,1708,68567,0,249.5703125,2051.9140625,126.385498046875,0,0,0,0,0,0,25
0,1,46.654941,1916667316,9667436,1762,68567,0,248.359359741211,2052.5390625,126.412963867188,0,0,0,0,0,0,25
0,1,46.69595,1916710461,9668167,1677,68567,0,248.398422241211,2052.6171875,126.397705078125,0,0,0,0,0,0,25
0,1,46.741961,1916751826,9668874,1661,68567,0,248.398422241211,2052.421875,126.419067382813,0,0,0,0,0,0,25
0,1,46.845368,1916795301,9669618,1767,68567,0,249.609344482422,2052.421875,126.40380859375,0,0,0,0,0,0,25
0,1,46.886379,1916839481,9670374,1696,68567,0,248.281234741211,2051.6796875,126.37939453125,0,0,0,0,0,0,25
0,1,46.896382,1916882703,9671109,1698,68567,0,248.359359741211,2052.4609375,126.397705078125,0,0,0,0,0,0,25
0,1,46.956031,1916926013,9671845,1714,68567,0,249.492172241211,2051.7578125,126.3671875,0,0,0,0,0,0,25
0,1,46.959031,1916972031,9672650,1705,68567,0,248.3203125,2052.03125,126.388549804688,0,0,0,0,0,0,25
0,1,46.997036,1917012044,9673342,1771,68567,0,246.601547241211,2049.375,126.251220703125,0,0,0,0,0,0,25
0,1,47.043045,1917055465,9674088,1748,68567,0,248.945297241211,2049.2578125,126.23291015625,0,0,0,0,0,0,25
0,1,47.090357,1917096045,9674805,1740,68567,0,248.8671875,2049.21875,126.2451171875,0,0,0,0,0,0,25
0,1,47.123323,1917137676,9675518,1710,68567,0,247.6171875,2048.6328125,126.217651367188,0,0,0,0,0,0,25
0,1,47.169334,1917181142,9676265,1696,68567,0,248.8671875,2049.21875,126.229858398438,0,0,0,0,0,0,25
0,1,47.203336,1917222880,9676986,1758,68567,0,247.734375,2049.21875,126.239013671875,0,0,0,0,0,0,25
0,1,47.269337,1917264619,9677696,1716,68567,0,247.734375,2049.1015625,126.2451171875,0,0,0,0,0,0,25
0,1,47.289346,1917308164,9678450,1692,68567,0,247.656219482422,2049.17944335938,126.229858398438,0,0,0,0,0,0,25
0,1,47.336352,1917351512,9679193,1752,68567,0,248.906219482422,2049.0234375,126.226806640625,0,0,0,0,0,0,25
0,1,47.379383,1917392540,9679897,1704,68567,0,248.828109741211,2048.7109375,126.23291015625,0,0,0,0,0,0,25
0,1,47.413126,1917433450,9680604,1757,68567,0,248.828109741211,2048.828125,126.217651367188,0,0,0,0,0,0,25
0,1,47.460136,1917477127,9681347,1707,68567,0,247.695297241211,2048.94506835938,126.226806640625,0,0,0,0,0,0,25
0,1,47.505148,1917520218,9682095,1687,68567,0,247.734375,2049.140625,126.2451171875,0,0,0,0,0,0,25
0,1,47.576163,1917561522,9682805,1761,68567,0,247.734375,2049.17944335938,126.2451171875,0,0,0,0,0,0,25
0,1,47.584163,1917604133,9683538,1715,68567,0,247.656219482422,2048.984375,126.239013671875,0,0,0,0,0,0,25
0,1,47.63018,1917644450,9684235,1750,68567,0,247.734375,2048.828125,126.235961914063,0,0,0,0,0,0,25
0,1,47.678187,1917685950,9684941,1707,68567,0,250.156219482422,2049.41381835938,126.239013671875,0,0,0,0,0,0,25
0,1,47.720195,1917729144,9685691,1687,68567,0,248.7109375,2048.43725585938,126.211547851563,0,0,0,0,0,0,25
0,1,47.753203,1917772208,9686422,1740,68567,0,250.156219482422,2049.0234375,126.229858398438,0,0,0,0,0,0,25
0,1,47.805216,1917815289,9687154,1720,68567,0,248.906219482422,2049.453125,126.2451171875,0,0,0,0,0,0,25
0,1,47.879236,1917857149,9687882,1745,68567,0,248.828109741211,2048.75,126.223754882813,0,0,0,0,0,0,25
0,1,47.882233,1917900043,9688617,1719,68567,0,248.906219482422,2049.0234375,126.235961914063,0,0,0,0,0,0,25
0,1,47.926241,1917941927,9689352,1700,68567,0,250.1171875,2049.140625,126.229858398438,0,0,0,0,0,0,25
0,1,47.973253,1917983910,9690085,1799,68567,0,250.1171875,2049.0625,126.223754882813,0,0,0,0,0,0,25
0,1,48.026112,1918026495,9690822,1733,68567,0,250.859375,2052.421875,126.406860351563,0,0,0,0,0,0,25
0,1,48.072271,1918068717,9691559,1731,68567,0,252.0703125,2052.265625,126.412963867188,0,0,0,0,0,0,25
0,1,48.090268,1918110219,9692260,1672,68567,0,251.953125,2052.1875,126.400756835938,0,0,0,0,0,0,25
0,1,48.133312,1918152172,9692973,1646,68567,0,251.953125,2052.34350585938,126.400756835938,0,0,0,0,0,0,25
0,1,48.200312,1918194275,9693685,1740,68567,0,250.742202758789,2052.1875,126.3916015625,0,0,0,0,0,0,25
0,1,48.217317,1918234430,9694355,1672,68567,0,250.742202758789,2052.03125,126.3916015625,0,0,0,0,0,0,25
0,1,48.257325,1918276534,9695064,1693,68567,0,251.992172241211,2052.5,126.412963867188,0,0,0,0,0,0,25
0,1,48.306336,1918318884,9695773,1697,68567,0,250.859375,2052.1484375,126.394653320313,0,0,0,0,0,0,25
0,1,48.341344,1918359407,9696478,1688,68567,0,250.742202758789,2052.4609375,126.406860351563,0,0,0,0,0,0,25
0,1,48.388355,1918401635,9697220,1816,68567,0,253.203094482422,2052.1875,126.400756835938,0,0,0,0,0,0,25
0,1,48.430399,1918443762,9697968,1779,68567,0,251.992172241211,2052.5390625,126.412963867188,0,0,0,0,0,0,25
0,1,48.500424,1918483832,9698687,1804,68567,0,251.914031982422,2052.3046875,126.400756835938,0,0,0,0,0,0,25
0,1,48.506425,1918525912,9699421,1720,68567,0,250.859375,2052.6171875,126.425170898438,0,0,0,0,0,0,25
0,1,48.557438,1918573584,9700253,1710,68567,0,251.953125,2052.34350585938,126.40380859375,0,0,0,0,0,0,25
0,1,48.602449,1918615561,9700975,1746,68567,0,251.953125,2052.4609375,126.406860351563,0,0,0,0,0,0,25
0,1,48.647458,1918656802,9701669,1684,68567,0,251.874984741211,2052.10913085938,126.394653320313,0,0,0,0,0,0,25
0,1,48.680466,1918698539,9702372,1661,68567,0,251.953125,2052.5390625,126.412963867188,0,0,0,0,0,0,25
0,1,48.731477,1918740218,9703062,1645,68567,0,251.953125,2052.3046875,126.40380859375,0,0,0,0,0,0,25
0,1,48.811496,1918783481,9703784,1626,68567,0,251.953125,2052.3828125,126.40380859375,0,0,0,0,0,0,25
0,1,48.814497,1918824245,9704488,1769,68567,0,250.742202758789,2052.2265625,126.400756835938,0,0,0,0,0,0,25
0,1,48.851507,1918865742,9705198,1744,68567,0,249.609344482422,2052.81225585938,126.419067382813,0,0,0,0,0,0,25
0,1,48.896516,1918906077,9705905,1750,68567,0,250.820281982422,2052.4609375,126.422119140625,0,0,0,0,0,0,25
0,1,48.948533,1918948016,9706633,1746,68567,0,250.820281982422,2052.3046875,126.412963867188,0,0,0,0,0,0,25
0,1,48.992552,1918991294,9707403,1731,68567,0,251.40625,2052.57788085938,126.412963867188,0,0,0,0,0,0,25
0,1,49.013542,1919032829,9708137,1807,68567,0,251.2890625,2048.90600585938,126.229858398438,0,0,0,0,0,0,25
0,1,49.056567,1919076403,9708892,1722,68567,0,251.2890625,2048.90600585938,126.239013671875,0,0,0,0,0,0,25
0,1,49.123566,1919122245,9709687,1694,68567,0,251.249969482422,2049.296875,126.248168945313,0,0,0,0,0,0,25
0,1,49.144571,1919164201,9710397,1711,68567,0,251.2890625,2048.984375,126.239013671875,0,0,0,0,0,0,25
0,1,49.190582,1919206671,9711111,1671,68567,0,250.273406982422,2049.3359375,126.2451171875,0,0,0,0,0,0,25
0,1,49.232605,1919247441,9711789,1684,68567,0,251.328109741211,2049.0625,126.239013671875,0,0,0,0,0,0,25
0,1,49.2716,1919290713,9712508,1714,68567,0,250.1171875,2049.17944335938,126.2451171875,0,0,0,0,0,0,25
0,1,49.317612,1919337536,9713310,1665,68567,0,250.039047241211,2048.94506835938,126.235961914063,0,0,0,0,0,0,25
0,1,49.359639,1919378891,9714036,1797,68567,0,252.539031982422,2049.0234375,126.23291015625,0,0,0,0,0,0,25
0,1,49.426654,1919420250,9714760,1763,68567,0,251.249969482422,2049.140625,126.239013671875,0,0,0,0,0,0,25
0,1,49.441657,1919461238,9715486,1774,68567,0,250.078140258789,2049.1015625,126.23291015625,0,0,0,0,0,0,25
0,1,49.48481,1919502847,9716201,1699,68567,0,250.1171875,2049.1015625,126.248168945313,0,0,0,0,0,0,25
0,1,49.538817,1919546167,9716949,1673,68567,0,251.249969482422,2049.17944335938,126.239013671875,0,0,0,0,0,0,25
0,1,49.569839,1919588996,9717689,1774,68567,0,251.210922241211,2048.94506835938,126.220703125,0,0,0,0,0,0,25
0,1,49.619822,1919632582,9718435,1726,68567,0,250.1171875,2048.984375,126.229858398438,0,0,0,0,0,0,25
0,1,49.654831,1919674534,9719163,1714,68567,0,251.2890625,2048.828125,126.223754882813,0,0,0,0,0,0,25
0,1,49.743853,1919715115,9719856,1707,68567,0,251.2890625,2049.3359375,126.229858398438,0,0,0,0,0,0,25
0,1,49.746853,1919758588,9720609,1685,68567,0,250.1171875,2048.8671875,126.220703125,0,0,0,0,0,0,25
0,1,49.78686,1919801517,9721350,1766,68567,0,250,2048.43725585938,126.214599609375,0,0,0,0,0,0,25
0,1,49.832869,1919843423,9722059,1692,68567,0,251.328109741211,2049.0234375,126.239013671875,0,0,0,0,0,0,25
0,1,49.887885,1919885672,9722781,1685,68567,0,251.249969482422,2049.3359375,126.23291015625,0,0,0,0,0,0,25
0,1,49.908937,1919928914,9723510,1701,68567,0,251.328109741211,2048.90600585938,126.223754882813,0,0,0,0,0,0,25
