command_auxdaq_sdwrite,flag_auxdaq_sdwrite,time_internal_seconds,time_auxdaq_us,position_engine_ticks,speed_engine_rpm,position_secondary_ticks,speed_secondary_rpm,pressure_frontbrake_psi,pressure_rearbrake_psi,lds_pedal_mm,imu_acceleration_x,imu_acceleration_y,imu_acceleration_z,imu_gyro_x,imu_gyro_y,imu_gyro_z,imu_temperature
0,1,0.367163,3009026465,5793224,1644,191630,0,24.6484279632568,2049.2578125,121.444702148438,1.21076834201813,-1.44047927856445,8.37966537475586,-0.0623082555830479,-0.0623082555830479,0.0232128798961639,72.140625
0,1,0.435178,3009067082,5793904,1673,191630,0,24.6874980926514,2049.92163085938,121.469116210938,-0.555134892463684,1.13419783115387,10.2269239425659,0.100181899964809,0.100181899964809,-0.040317103266716,72.31640625
0,1,0.454179,3009118579,5794753,1648,191630,0,24.5703163146973,2049.3359375,121.438598632813,-1.80418825149536,4.12522602081299,9.98764133453369,0.0146607654169202,0.0146607654169202,-0.102625355124474,72.453125
0,1,0.502189,3009166882,5795537,1613,191630,0,24.6093578338623,2049.21875,121.432495117188,3.05802726745605,0.70348984003067,10.8299150466919,-0.0232128798961639,-0.0232128798961639,-0.0244346093386412,72.63671875
0,1,0.544198,3009207528,5796191,1614,191630,0,24.6484279632568,2049.375,121.453857421875,0.760917603969574,0.698704242706299,12.0406837463379,-0.03176499158144,-0.03176499158144,-0.0708603635430336,72.72265625
0,1,0.598213,3009249213,5796852,1599,191630,0,24.5703163146973,2049.21875,121.438598632813,-1.14376926422119,-8.58544731140137,10.8203449249268,0,0,0.0464257597923279,72.734375
0,1,0.627219,3009289745,5797550,1723,191630,0,24.5312461853027,2049.453125,121.478271484375,2.74217462539673,-0.689132928848267,3.95294308662415,0.100181899964809,0.100181899964809,0.00733038270846009,72.859375
0,1,0.668228,3009331235,5798270,1832,191630,0,24.6484279632568,2049.6875,121.481323242188,-3.22552514076233,2.59381985664368,14.2707948684692,0.0537561401724815,0.0537561401724815,-0.040317103266716,72.8984375
0,1,0.729444,3009371841,5799005,1801,191630,0,25.7031326293945,2049.1015625,121.478271484375,3.92901492118835,1.30169558525085,10.8203449249268,-0.00855211354792118,-0.00855211354792118,0.156381502747536,72.84375
0,1,0.755246,3009414521,5799783,1826,191630,0,25.7812442779541,2049.8046875,121.514892578125,-4.29272365570068,-3.16809725761414,12.5096769332886,0,0,0.0464257597923279,72.95703125
0,1,0.793258,3009455845,5800512,1818,191630,0,24.6093578338623,2049.53125,121.5087890625,-4.1012978553772,0.0382851622998714,3.20159697532654,-0.01588249579072,-0.01588249579072,-0.0244346093386412,73.01953125
0,1,0.835269,3009497138,5801264,1805,191630,0,23.4765701293945,2049.453125,121.52099609375,-0.985842943191528,0.89012998342514,18.2811660766602,-0.03176499158144,-0.03176499158144,-0.141720727086067,73.125
0,1,0.881277,3009539261,5802022,1786,191630,0,24.5703163146973,2049.3359375,121.511840820313,-0.622133910655975,3.69451808929443,3.56530570983887,0.0610865242779255,0.0610865242779255,-0.0794124826788902,73.15234375
0,1,0.950294,3009581357,5802765,1757,191630,0,24.5703163146973,2049.7265625,121.517944335938,3.21595358848572,0.885344386100769,12.0598258972168,-0.0549778714776039,-0.0549778714776039,-0.056199599057436,75.69921875
0,1,0.956296,3009622049,5803489,1774,191630,0,24.6484279632568,2049.6875,121.517944335938,-1.02412807941437,-0.473778903484344,10.045069694519,0.0696386322379112,0.0696386322379112,0.156381502747536,73.203125
0,1,0.999301,3009663497,5804216,1749,191630,0,24.6093578338623,2049.765625,121.527099609375,-2.46939301490784,-1.62711942195892,15.5342044830322,0.0378736443817616,0.0378736443817616,-0.134390354156494,73.39453125
0,1,1.066305,3009707915,5804983,1712,191630,0,25.7421722412109,2049.2578125,121.511840820313,-0.923629522323608,1.53140652179718,6.92961454391479,0.0232128798961639,0.0232128798961639,0,73.4140625
0,1,1.091309,3009749139,5805695,1731,191630,0,25.8203144073486,2049.4921875,121.527099609375,-0.942772150039673,-1.41176533699036,13.0935249328613,-0.01588249579072,-0.01588249579072,0.0549778714776039,73.45703125
0,1,1.159572,3009793783,5806462,1713,191630,0,25.7812442779541,2049.609375,121.524047851563,-1.06241321563721,0.971486032009125,7.93459987640381,0.00733038270846009,0.00733038270846009,-0.0244346093386412,73.5
0,1,1.172571,3009835816,5807174,1673,191630,0,24.6093578338623,2049.765625,121.530151367188,-1.76111745834351,-0.794417202472687,7.6618185043335,0.0537561401724815,0.0537561401724815,-0.0794124826788902,73.55078125
0,1,1.219581,3009882545,5807959,1698,191630,0,24.6484279632568,2049.296875,121.517944335938,1.52662086486816,3.91465783119202,10.4757785797119,-0.0549778714776039,-0.0549778714776039,0.0464257597923279,73.65234375
0,1,1.256589,3009922717,5808607,1402,191630,0,24.5703163146973,2049.453125,121.542358398438,2.36410880088806,0.172283232212067,11.1744813919067,0.0769690200686455,0.0769690200686455,0.0146607654169202,73.671875
0,1,1.30544,3009965285,5809321,1679,191630,0,24.6484279632568,2049.453125,121.548461914063,1.18684005737305,-1.72283244132996,9.96849918365479,-0.0232128798961639,-0.0232128798961639,0,73.64453125
0,1,1.340447,3010005663,5809991,1658,191630,0,24.9609355926514,2052.57788085938,121.701049804688,3.97687125205994,-0.894915699958801,7.8149585723877,0.0378736443817616,0.0378736443817616,-0.040317103266716,73.8125
0,1,1.38146,3010047163,5810675,1640,191630,0,25.0390472412109,2052.81225585938,121.697998046875,-0.569491803646088,-0.942772150039673,7.19761085510254,0.0305432621389627,0.0305432621389627,0.0390953756868839,73.81640625
0,1,1.435467,3010087634,5811331,1625,191630,0,24.9609355926514,2052.81225585938,121.71630859375,-2.96710014343262,0.832702338695526,11.7248306274414,0.0146607654169202,0.0146607654169202,0.0232128798961639,73.87109375
0,1,1.475475,3010129244,5812006,1598,191630,0,24.9609355926514,2052.9296875,121.713256835938,6.79083061218262,-0.57906311750412,13.1557378768921,0.0146607654169202,0.0146607654169202,0.0464257597923279,73.9375
0,1,1.506483,3010171101,5812694,1710,191630,0,25.0000057220459,2052.890625,121.707153320313,7.48474884033203,4.15872573852539,12.8159580230713,0.0610865242779255,0.0610865242779255,-0.0952949747443199,73.984375
0,1,1.5715,3010211968,5813384,1672,191630,0,25.0390472412109,2052.81225585938,121.71630859375,-0.669990360736847,1.19162571430206,8.1020975112915,0,0,0,73.984375
0,1,1.591504,3010254236,5814130,1796,191630,0,26.1718635559082,2052.7734375,121.731567382813,1.04327070713043,0.354137748479843,13.7635164260864,-0.0855211317539215,-0.0855211317539215,-0.01588249579072,74.07421875
0,1,1.634513,3010295531,5814867,1788,191630,0,25.0390472412109,2052.85131835938,121.731567382813,-1.31126689910889,1.48833572864532,9.40379333496094,0.0464257597923279,0.0464257597923279,-0.056199599057436,74
0,1,1.705528,3010335650,5815593,1794,191630,0,23.9062309265137,2053.1640625,121.759033203125,2.88574409484863,2.3497519493103,9.50429153442383,0.0232128798961639,0.0232128798961639,0.0390953756868839,74.203125
0,1,1.711548,3010377320,5816340,1795,191630,0,24.9609355926514,2053.08569335938,121.7529296875,-7.63789033889771,2.12482643127441,11.4041929244995,-0.0232128798961639,-0.0232128798961639,-0.00855211354792118,74.16015625
0,1,1.753562,3010418871,5817049,1763,191630,0,24.9609355926514,2052.6953125,121.737670898438,-3.60837650299072,-0.325423896312714,9.98764133453369,0.0464257597923279,0.0464257597923279,0.00733038270846009,74.08984375
0,1,1.796583,3010460210,5817783,1774,191630,0,25.0000057220459,2052.9296875,121.762084960938,-4.00079965591431,1.65104758739471,4.04865598678589,0.0378736443817616,0.0378736443817616,-0.01588249579072,74.30078125
0,1,1.847586,3010506649,5818595,1748,191630,0,23.7890472412109,2052.7734375,121.743774414063,-2.51724934577942,0.823131024837494,8.69073104858398,0.00733038270846009,0.00733038270846009,-0.04764748737216,74.40625
0,1,1.881593,3010547086,5819293,1713,191630,0,24.9609355926514,2052.85131835938,121.7529296875,-1.80418825149536,3.48394989967346,9.33200836181641,-0.0390953756868839,-0.0390953756868839,0.00733038270846009,74.328125
0,1,1.924603,3010590704,5820039,1703,191630,0,25.0000057220459,2052.6953125,121.749877929688,1.93818628787994,-1.71326100826263,14.2325086593628,-0.0232128798961639,-0.0232128798961639,0.0305432621389627,76.82421875
0,1,1.966612,3010631726,5820731,1683,191630,0,26.0937519073486,2053.125,121.7529296875,-1.16769742965698,-1.34955203533173,9.03051280975342,0.00733038270846009,0.00733038270846009,0.140499010682106,75.8046875
0,1,2.010619,3010673209,5821434,1691,191630,0,24.9609355926514,2053.125,121.76513671875,-2.16789722442627,0.636490821838379,9.32722282409668,0.0537561401724815,0.0537561401724815,-0.056199599057436,74.421875
0,1,2.061632,3010714367,5822123,1681,191630,0,24.9609355926514,2053.046875,121.762084960938,-0.392422914505005,-1.25383913516998,9.28415203094482,0.0378736443817616,0.0378736443817616,-0.0952949747443199,74.5
0,1,2.09564,3010755431,5822811,1653,191630,0,24.9609355926514,2052.9296875,121.762084960938,2.77088856697083,-0.531206607818604,14.7780723571777,-0.04764748737216,-0.04764748737216,-0.01588249579072,74.5078125
0,1,2.130647,3010796698,5823507,1725,191630,0,25.0390472412109,2053.125,121.76513671875,3.94337177276611,5.18763971328735,11.2654085159302,0,0,-0.03176499158144,74.5
0,1,2.186662,3010838055,5824211,1687,191630,0,25.0000057220459,2052.734375,121.759033203125,-1.18205440044403,-1.02891373634338,12.7441740036011,-0.01588249579072,-0.01588249579072,0.0940732434391975,74.49609375
0,1,2.241677,3010880379,5824926,1681,191630,0,26.1718635559082,2052.6953125,121.7529296875,-6.75254535675049,-1.32083809375763,10.2939224243164,-0.0708603635430336,-0.0708603635430336,0.0146607654169202,74.546875
0,1,2.258676,3010921177,5825602,1660,191630,0,26.132791519165,2052.7734375,121.768188476563,3.41216492652893,-0.416351169347763,7.75274515151978,0.0232128798961639,0.0232128798961639,0.0305432621389627,74.6328125
0,1,2.302689,3010963488,5826317,1674,191630,0,23.7500076293945,2053.08569335938,121.77734375,0.167497590184212,2.49332118034363,12.6771745681763,-0.00855211354792118,-0.00855211354792118,0.0390953756868839,74.59765625
0,1,2.339697,3011005046,5827004,1726,191630,0,23.4765701293945,2049.5703125,121.609497070313,-3.06281304359436,1.02891373634338,9.64786052703857,-0.01588249579072,-0.01588249579072,-0.040317103266716,74.70703125
0,1,2.380703,3011045810,5827701,1696,191630,0,24.6093578338623,2049.84375,121.6064453125,3.61316204071045,3.16809725761414,9.74835968017578,-0.0232128798961639,-0.0232128798961639,-0.0635299831628799,74.5703125
0,1,2.429715,3011087274,5828411,1722,191630,0,24.6484279632568,2049.453125,121.603393554688,-0.82791668176651,0.00957129057496786,12.1028966903687,-0.00855211354792118,-0.00855211354792118,0.0623082555830479,74.7734375
0,1,2.465099,3011128748,5829119,1699,191630,0,24.5703163146973,2049.765625,121.609497070313,1.08155596256256,-1.82811641693115,5.76191711425781,-0.01588249579072,-0.01588249579072,0.0146607654169202,74.7421875
0,1,2.511109,3011171252,5829862,1746,191630,0,24.6484279632568,2049.6875,121.6064453125,-4.12044048309326,-0.205782756209373,3.30209517478943,0.0378736443817616,0.0378736443817616,-0.141720727086067,74.828125
0,1,2.569122,3011219301,5830687,1758,191630,0,24.5703163146973,2048.984375,121.58203125,-1.80897402763367,3.37388014793396,7.7144603729248,-0.01588249579072,-0.01588249579072,0.0623082555830479,74.83984375
0,1,2.601129,3011260652,5831404,1723,191630,0,24.6093578338623,2049.453125,121.615600585938,-1.88075852394104,-1.63669061660767,11.4903335571289,-0.0232128798961639,-0.0232128798961639,-0.0794124826788902,74.9140625
0,1,2.64214,3011307665,5832225,1746,191630,0,24.6093578338623,2049.2578125,121.597290039063,1.05284190177917,-0.981057286262512,5.59441900253296,0.00733038270846009,0.00733038270846009,0.00733038270846009,74.9921875
0,1,2.684149,3011349028,5832945,1773,191630,0,23.3984298706055,2049.6875,121.615600585938,-3.0197422504425,0.540777981281281,14.4000062942505,0.0769690200686455,0.0769690200686455,-0.0867428630590439,74.984375
0,1,2.732159,3011393847,5833734,1745,191630,0,24.5703163146973,2049.53125,121.6064453125,0.028713870793581,2.35932302474976,7.36510801315308,-0.0390953756868839,-0.0390953756868839,-0.212581098079681,75.09765625
0,1,2.790173,3011435097,5834458,1752,191630,0,24.6093578338623,2049.453125,121.609497070313,0.847059190273285,-1.2825528383255,9.24108123779297,0.0378736443817616,0.0378736443817616,0.101403623819351,75.0234375
0,1,2.817187,3011481394,5835262,1737,191630,0,24.6093578338623,2049.21875,121.600341796875,1.4021942615509,-2.79003119468689,7.1832537651062,0.0696386322379112,0.0696386322379112,0.0464257597923279,75.015625
0,1,2.858189,3011521727,5835959,1708,191630,0,24.6874980926514,2049.64819335938,121.61865234375,3.32602334022522,-0.617348253726959,13.3902359008789,-0.00855211354792118,-0.00855211354792118,-0.040317103266716,75.04296875
0,1,2.913199,3011568562,5836762,1717,191630,0,23.5546836853027,2049.53125,121.61865234375,3.10588383674622,2.46939301490784,9.73878765106201,-0.03176499158144,-0.03176499158144,0.0146607654169202,75.0390625
0,1,2.943205,3011608684,5837424,1694,191630,0,24.6093578338623,2049.296875,121.609497070313,-2.07218432426453,1.172483086586,9.80578708648682,0.0232128798961639,0.0232128798961639,-0.0867428630590439,75.12109375
0,1,3.006221,3011650293,5838142,1730,191630,0,25.7421722412109,2049.7265625,121.630859375,-3.37388014793396,-0.961914658546448,5.43649244308472,0.0232128798961639,0.0232128798961639,0,75.12890625
0,1,3.027228,3011691180,5838840,1714,191630,0,24.6093578338623,2049.41381835938,121.612548828125,1.74197494983673,-1.96211457252502,9.47557735443115,0.0232128798961639,0.0232128798961639,-0.04764748737216,75.16796875
0,1,3.070234,3011732339,5839543,1687,191630,0,24.5703163146973,2049.5703125,121.61865234375,2.51246380805969,0.502492785453796,16.2711944580078,-0.00855211354792118,-0.00855211354792118,0.235793977975845,75.203125
0,1,3.124248,3011773814,5840210,1745,191630,0,24.5312461853027,2049.375,121.600341796875,-1.24426782131195,5.51306343078613,10.2269239425659,0.00733038270846009,0.00733038270846009,-0.141720727086067,75.2890625
0,1,3.150255,3011815149,5840922,1708,191630,0,24.6484279632568,2049.453125,121.624755859375,-0.267996162176132,-0.0478564538061619,11.8349008560181,-0.0855211317539215,-0.0855211317539215,0.109955742955208,75.2265625
0,1,3.195262,3011856035,5841622,1705,191630,0,25.7421722412109,2049.4921875,121.61865234375,-1.9812570810318,1.43090796470642,14.170295715332,-0.0232128798961639,-0.0232128798961639,0.0696386322379112,75.28515625
0,1,3.248278,3011896748,5842288,1683,191630,0,25.8593559265137,2049.41381835938,121.612548828125,1.26819598674774,-1.06241321563721,5.60399055480957,0.0232128798961639,0.0232128798961639,0.124616511166096,75.38671875
0,1,3.274283,3011939051,5842995,1671,191630,0,24.6093578338623,2049.5703125,121.621704101563,1.89032995700836,-0.856630504131317,9.97807121276855,0.116064392030239,0.116064392030239,0.0781907513737679,75.37890625
0,1,3.315294,3011980503,5843691,1715,191630,0,24.5703163146973,2049.0234375,121.609497070313,0.574277460575104,2.6273193359375,10.451849937439,0.0146607654169202,0.0146607654169202,-0.0867428630590439,75.453125
0,1,3.355301,3012020841,5844359,1686,191630,0,25.0390472412109,2052.96875,121.798706054688,4.2113676071167,3.90987229347229,11.6674032211304,-0.03176499158144,-0.03176499158144,-0.00855211354792118,75.45703125
0,1,3.39731,3012062448,5845063,1692,191630,0,25.0390472412109,2052.734375,121.78955078125,0.669990360736847,-0.655633449554443,12.4187488555908,0.0146607654169202,0.0146607654169202,0.0623082555830479,75.56640625
0,1,3.43832,3012103586,5845753,1670,191630,0,24.9609355926514,2052.5,121.792602539063,-2.2396821975708,-1.54097783565521,12.6341047286987,-0.0390953756868839,-0.0390953756868839,0.124616511166096,75.50390625
0,1,3.489331,3012143674,5846440,1719,191630,0,26.132791519165,2052.65625,121.78955078125,3.8859441280365,5.14935445785522,7.00139951705933,0,0,-0.141720727086067,75.5390625
0,1,3.51934,3012185123,5847142,1705,191630,0,26.2500038146973,2052.81225585938,121.8017578125,4.82393026351929,-2.29710984230042,4.21615362167358,0.0232128798961639,0.0232128798961639,0.0146607654169202,77.83203125
0,1,3.560346,3012226253,5847844,1686,191630,0,26.2109336853027,2053.046875,121.798706054688,4.63250494003296,-0.961914658546448,14.2181520462036,0.0232128798961639,0.0232128798961639,0.0549778714776039,75.55859375
0,1,3.602355,3012266818,5848536,1736,191630,0,26.0937519073486,2052.6171875,121.78955078125,0.0526420958340168,4.04387044906616,10.5810613632202,0.0146607654169202,0.0146607654169202,0,75.56640625
0,1,3.646365,3012309384,5849265,1700,191630,0,25.0781173706055,2052.81225585938,121.810913085938,1.26341044902802,-0.449850678443909,12.2368955612183,0,0,0.0696386322379112,75.6171875
0,1,3.687374,3012353340,5850029,1746,191630,0,27.2265663146973,2052.6953125,121.795654296875,2.13439774513245,2.35932302474976,1.86640179157257,-0.0549778714776039,-0.0549778714776039,0.0940732434391975,75.57421875
0,1,3.731385,3012395252,5850754,1751,191630,0,24.9218635559082,2052.6953125,121.795654296875,5.10628318786621,-2.172682762146,8.73380279541016,0,0,-0.125838235020638,75.62109375
0,1,3.782397,3012442164,5851580,1743,191630,0,25.0000057220459,2052.9296875,121.8017578125,1.86161601543427,3.63230466842651,8.19781017303467,-0.108734011650085,-0.108734011650085,0.149051114916801,75.65234375
0,1,3.821406,3012482674,5852290,1750,191630,0,24.9609355926514,2052.6953125,121.8017578125,3.79023122787476,-1.66061890125275,11.5142631530762,0.0232128798961639,0.0232128798961639,-0.040317103266716,75.703125
0,1,3.867416,3012528078,5853079,1738,191630,0,24.9609355926514,2052.890625,121.798706054688,-1.82333087921143,0.421136766672134,10.1359958648682,0.0464257597923279,0.0464257597923279,0,75.62109375
0,1,3.904426,3012570043,5853816,1739,191630,0,25.0390472412109,2053.125,121.817016601563,3.59880542755127,0.392422914505005,8.90608596801758,0.0305432621389627,0.0305432621389627,-0.03176499158144,75.69921875
0,1,3.979443,3012616791,5854635,1768,191630,0,25.0390472412109,2053.08569335938,121.804809570313,-3.431307554245,4.23051023483276,10.5571327209473,0,0,0.0305432621389627,75.70703125
0,1,3.992448,3012658485,5855365,1742,191630,0,24.9609355926514,2052.57788085938,121.804809570313,-0.435493737459183,3.37866568565369,11.0117702484131,0.0928515195846558,0.0928515195846558,-0.157603219151497,75.71484375
0,1,4.041455,3012703909,5856161,1738,191630,0,23.7890472412109,2052.65625,121.780395507813,3.3547375202179,1.72761797904968,9.34157943725586,-0.01588249579072,-0.01588249579072,-0.03176499158144,75.76953125
0,1,4.084466,3012746305,5856898,1752,191630,0,24.9218635559082,2052.34350585938,121.78955078125,1.10069835186005,2.18704009056091,10.7964162826538,0.0146607654169202,0.0146607654169202,0.0940732434391975,75.765625
0,1,4.148721,3012794256,5857727,1717,191630,0,24.9609355926514,2052.9296875,121.810913085938,-1.8185453414917,3.61794805526733,6.64247560501099,0.00733038270846009,0.00733038270846009,-0.04764748737216,75.76171875
0,1,4.170719,3012835779,5858444,1725,191630,0,26.132791519165,2052.6953125,121.804809570313,-2.53160643577576,-0.057427741587162,4.47457790374756,-0.00855211354792118,-0.00855211354792118,-0.102625355124474,75.80078125
0,1,4.216729,3012880249,5859205,1740,191630,0,25.0781173706055,2052.65625,121.792602539063,-0.555134892463684,-2.12482643127441,10.0546407699585,0.0305432621389627,0.0305432621389627,0,75.88671875
0,1,4.268744,3012923008,5859946,1719,191630,0,24.8827934265137,2052.734375,121.81396484375,3.28773856163025,4.09651231765747,12.0550403594971,-0.03176499158144,-0.03176499158144,0.109955742955208,76.00390625
0,1,4.301751,3012967447,5860696,1556,191630,0,24.9218635559082,2052.6953125,121.8017578125,-2.11525511741638,-2.02911353111267,8.91565704345703,-0.0232128798961639,-0.0232128798961639,-0.040317103266716,75.90234375
0,1,4.362762,3013008787,5861399,1701,191630,0,24.6484279632568,2049.8046875,121.664428710938,-3.12981200218201,0.057427741587162,7.06361293792725,0.0146607654169202,0.0146607654169202,-0.03176499158144,75.95703125
0,1,4.393769,3013055160,5862199,1708,191630,0,24.6093578338623,2049.609375,121.640014648438,1.89511561393738,-2.15832591056824,12.0598258972168,-0.01588249579072,-0.01588249579072,-0.056199599057436,75.9921875
0,1,4.430776,3013096498,5862904,1708,191630,0,24.6093578338623,2049.3359375,121.64306640625,-0.832702338695526,1.21076834201813,10.4135646820068,-0.0390953756868839,-0.0390953756868839,0.0390953756868839,76
0,1,4.47979,3013141198,5863657,1672,191630,0,24.6093578338623,2049.0234375,121.621704101563,1.1198410987854,1.564906001091,11.9736852645874,0.289550095796585,0.289550095796585,0.0146607654169202,75.97265625
0,1,4.536357,3013183601,5864368,1677,191630,0,24.5703163146973,2049.53125,121.640014648438,-4.01515626907349,-0.387637257575989,14.2468662261963,-0.00855211354792118,-0.00855211354792118,-0.01588249579072,76.0234375
0,1,4.561354,3013224926,5865050,1653,191630,0,24.7265701293945,2049.84375,121.652221679688,-2.41675090789795,-0.205782756209373,9.5330057144165,0.0696386322379112,0.0696386322379112,-0.01588249579072,76.015625
0,1,4.606363,3013267505,5865755,1639,191630,0,24.6874980926514,2049.4921875,121.64306640625,-3.00059962272644,-1.9860428571701,9.60957527160645,-0.00855211354792118,-0.00855211354792118,-0.0708603635430336,76.1015625
0,1,4.676388,3013307617,5866410,1628,191630,0,24.6484279632568,2049.453125,121.649169921875,2.68474698066711,0.732203722000122,13.3375940322876,0.0769690200686455,0.0769690200686455,0.0855211317539215,76.04296875
0,1,4.684383,3013348728,5867074,1592,191630,0,24.6093578338623,2049.609375,121.640014648438,2.38325142860413,2.43110799789429,10.1407823562622,-0.01588249579072,-0.01588249579072,-0.125838235020638,76.1640625
0,1,4.7244,3013390219,5867757,1702,191630,0,25.7812442779541,2049.5703125,121.646118164063,-4.34536552429199,0.976271688938141,7.07796955108643,-0.0623082555830479,-0.0623082555830479,0.0464257597923279,76.10546875
0,1,4.766399,3013431972,5868460,1663,191630,0,24.6093578338623,2049.17944335938,121.652221679688,-1.89032995700836,-1.46919298171997,5.42692184448242,0.0696386322379112,0.0696386322379112,-0.00855211354792118,76.12890625
0,1,4.813841,3013474273,5869202,1775,191630,0,25.7812442779541,2049.6875,121.670532226563,-7.8484582901001,2.37368011474609,5.29292392730713,0.0305432621389627,0.0305432621389627,-0.03176499158144,76.1015625
0,1,4.853842,3013516174,5869943,1807,191630,0,24.6093578338623,2049.609375,121.670532226563,6.67597532272339,-1.15812623500824,5.81934452056885,0.0305432621389627,0.0305432621389627,-0.040317103266716,76.09765625
0,1,4.930874,3013591455,5871313,1826,191630,0,24.5703163146973,2049.140625,121.652221679688,-0.0430708080530167,4.79521656036377,7.46082067489624,-0.03176499158144,-0.03176499158144,0.0390953756868839,76.26953125
0,1,4.985987,3013643207,5872244,1799,191630,0,25.7812442779541,2049.296875,121.661376953125,3.775874376297,0.64127641916275,4.10608386993408,0.0232128798961639,0.0232128798961639,0,76.453125
0,1,5.019992,3013686017,5873027,1815,191630,0,23.4375,2049.5703125,121.688842773438,0.339780777692795,-1.33998072147369,12.131609916687,0.0464257597923279,0.0464257597923279,-0.0635299831628799,76.421875
0,1,5.064997,3013727144,5873777,1840,191630,0,24.5703163146973,2049.17944335938,121.6796875,-0.823131024837494,1.67976152896881,12.7202453613281,-0.0390953756868839,-0.0390953756868839,-0.0794124826788902,76.38671875
0,1,5.120013,3013768285,5874525,1805,191630,0,24.6874980926514,2050.3125,121.725463867188,-5.63749027252197,0.851844847202301,7.74317359924316,0.0610865242779255,0.0610865242779255,0.117286123335361,76.37890625
0,1,5.146019,3013809261,5875269,1811,191630,0,25.7812442779541,2049.453125,121.707153320313,0.291924357414246,-1.22033965587616,6.36969375610352,0.0537561401724815,0.0537561401724815,-0.0708603635430336,76.328125
0,1,5.187028,3013850544,5876012,1815,191630,0,24.6874980926514,2049.3359375,121.694946289063,2.32582354545593,-3.88115835189819,11.7679023742676,-0.00855211354792118,-0.00855211354792118,0.133168622851372,76.43359375
0,1,5.229033,3013891976,5876759,1787,191630,0,25.8203144073486,2049.3359375,121.697998046875,-0.770488917827606,7.05404090881348,7.8149585723877,0.0232128798961639,0.0232128798961639,-0.056199599057436,76.43359375
0,1,5.269045,3013933480,5877501,1782,191630,0,24.5703163146973,2049.375,121.682739257813,0.521635353565216,-2.95274305343628,13.0743837356567,0,0,-0.04764748737216,76.484375
0,1,5.314056,3013975640,5878247,1770,191630,0,24.5703163146973,2049.609375,121.713256835938,0.808774054050446,-0.378066003322601,6.94397115707397,-0.00855211354792118,-0.00855211354792118,0.0549778714776039,76.45703125
0,1,5.364068,3014017110,5878990,1776,191630,0,24.5312461853027,2052.85131835938,121.878051757813,1.73718917369843,-2.20618271827698,9.18843936920166,0.107512280344963,0.107512280344963,-0.0708603635430336,76.4765625
0,1,5.397074,3014058366,5879723,1784,191630,0,24.9609355926514,2053.0078125,121.875,-1.61276257038116,1.91425800323486,11.2127676010132,0.0378736443817616,0.0378736443817616,-0.11117747426033,78.16796875
0,1,5.437086,3014099763,5880451,1748,191630,0,25.0390472412109,2052.734375,121.871948242188,5.18763971328735,-0.693918585777283,9.8536434173584,0,0,0.0623082555830479,76.515625
0,1,5.477095,3014142040,5881192,1747,191630,0,26.1718635559082,2052.5,121.853637695313,0.196211457252502,1.31605231761932,6.04427003860474,0,0,-0.01588249579072,76.51953125
0,1,5.518102,3014182669,5881892,1726,191630,0,26.1718635559082,2052.5,121.865844726563,0.602991282939911,-1.01455676555634,4.80957365036011,0.0305432621389627,0.0305432621389627,0.0390953756868839,76.5078125
0,1,5.565119,3014223465,5882591,1694,191630,0,25.0390472412109,2053.0078125,121.893310546875,0.028713870793581,1.71804666519165,11.5094766616821,-0.01588249579072,-0.01588249579072,-0.0867428630590439,76.48828125
0,1,5.602126,3014265090,5883297,1704,191630,0,24.9609355926514,2052.96875,121.884155273438,-3.65144729614258,0.138783723115921,12.0885400772095,0.00733038270846009,0.00733038270846009,-0.0244346093386412,78.91796875
0,1,5.643356,3014306737,5883999,1670,191630,0,26.1718635559082,2052.9296875,121.878051757813,2.80917382240295,0.660419046878815,8.31266593933105,-0.0390953756868839,-0.0390953756868839,0.101403623819351,76.50390625
0,1,5.693861,3014348558,5884709,1703,191630,0,25.0000057220459,2053.08569335938,121.896362304688,-0.918843865394592,0.837487936019897,11.854043006897,0,0,-0.04764748737216,76.53125
0,1,5.725867,3014390644,5885419,1686,191630,0,25.0781173706055,2052.65625,121.88720703125,4.38843631744385,-2.38803720474243,7.16411113739014,0,0,-0.01588249579072,76.546875
0,1,5.772877,3014432220,5886124,1684,191630,0,23.7890472412109,2052.81225585938,121.890258789063,4.99142837524414,-1.16291177272797,6.97268486022949,0.107512280344963,0.107512280344963,0.101403623819351,76.5625
0,1,5.829892,3014474396,5886831,1683,191630,0,25.0000057220459,2052.96875,121.893310546875,2.66081881523132,2.09611248970032,9.56171894073486,0.0464257597923279,0.0464257597923279,0.0781907513737679,76.58984375
0,1,5.851898,3014515093,5887511,1653,191630,0,24.8827934265137,2052.9296875,121.893310546875,2.72781777381897,2.61296248435974,8.3030948638916,-0.0232128798961639,-0.0232128798961639,0.0855211317539215,76.6796875
0,1,5.894906,3014557005,5888209,1670,191630,0,24.9218635559082,2052.9296875,121.890258789063,-1.67976152896881,2.2109682559967,10.480562210083,0.0146607654169202,0.0146607654169202,-0.056199599057436,76.609375
0,1,5.934916,3014598200,5888890,1644,191630,0,24.9218635559082,2053.08569335938,121.902465820313,-2.55553460121155,0.0813559740781784,8.9108715057373,-0.282219737768173,-0.282219737768173,0.0855211317539215,78.3359375
0,1,5.989936,3014639151,5889574,1681,191630,0,26.132791519165,2052.5390625,121.884155273438,0.89012998342514,-1.45005059242249,6.99661350250244,-0.01588249579072,-0.01588249579072,-0.03176499158144,76.59765625
0,1,6.020935,3014680590,5890259,1658,191630,0,26.2109336853027,2053.0078125,121.902465820313,-1.79461693763733,0.071784682571888,7.70010328292847,0,0,0.0146607654169202,76.6171875
0,1,6.058943,3014724338,5890996,1667,191630,0,25.0390472412109,2052.96875,121.902465820313,-0.698704242706299,-2.12004113197327,12.9260282516479,0.107512280344963,0.107512280344963,0.109955742955208,76.58984375
0,1,6.101955,3014766779,5891705,1685,191630,0,25.0390472412109,2053.4765625,121.917724609375,-1.02891373634338,1.28733861446381,10.0163555145264,0.00733038270846009,0.00733038270846009,0.0146607654169202,76.64453125
0,1,6.144964,3014810846,5892437,1649,191630,0,23.7500076293945,2052.265625,121.881103515625,1.33998072147369,0.464207619428635,10.6097755432129,0.0232128798961639,0.0232128798961639,0.0781907513737679,76.578125
0,1,6.187972,3014853181,5893162,1729,191630,0,24.9218635559082,2052.7734375,121.905517578125,3.31645226478577,-3.5461630821228,12.1028966903687,-0.0623082555830479,-0.0623082555830479,0.149051114916801,76.70703125
0,1,6.249987,3014895746,5893889,1717,191630,0,25.0390472412109,2052.85131835938,121.8994140625,0.70348984003067,0.626919567584991,3.42652201652527,0.0842994004487991,0.0842994004487991,0.00733038270846009,76.69921875
0,1,6.273994,3014937172,5894610,1724,191630,0,24.9609355926514,2052.7734375,121.905517578125,3.13459801673889,-2.02432799339294,10.1934251785278,-0.00855211354792118,-0.00855211354792118,-0.0952949747443199,76.73828125
0,1,6.315001,3014978403,5895333,1798,191630,0,24.9218635559082,2052.890625,121.91162109375,1.95732891559601,3.47437834739685,9.27458095550537,-0.00855211354792118,-0.00855211354792118,-0.125838235020638,76.6328125
0,1,6.380023,3015019750,5896066,1759,191630,0,23.5156116485596,2049.84375,121.7529296875,2.46939301490784,-1.63669061660767,14.3282222747803,-0.04764748737216,-0.04764748737216,0.0232128798961639,76.765625
0,1,6.396019,3015061214,5896801,1770,191630,0,25.7812442779541,2049.6875,121.749877929688,-3.02931356430054,1.49790692329407,4.30229473114014,0.00733038270846009,0.00733038270846009,-0.0708603635430336,76.7421875
0,1,6.437033,3015102678,5897529,1772,191630,0,24.5703163146973,2049.4921875,121.74072265625,0.468993246555328,1.17726874351501,2.04825615882874,0.0696386322379112,0.0696386322379112,-0.00855211354792118,76.73828125
0,1,6.578061,3015145458,5898290,1762,191630,0,24.6093578338623,2049.64819335938,121.737670898438,-0.669990360736847,-2.29232406616211,9.30329418182373,-0.04764748737216,-0.04764748737216,0.188146486878395,76.765625
0,1,6.649075,3015187876,5899037,1755,191630,0,24.6093578338623,2049.1015625,121.917724609375,-1.14376926422119,0.626919567584991,7.37467908859253,0.00733038270846009,0.00733038270846009,-0.0635299831628799,76.796875
0,1,6.676086,3015229246,5899757,1733,191630,0,23.3593578338623,2049.0625,121.88720703125,-0.411565512418747,1.28733861446381,12.3086795806885,0,0,0.0146607654169202,76.796875
0,1,6.707089,3015270672,5900479,1739,191630,0,13.9062404632568,2049.3359375,121.942138671875,2.40717959403992,-1.69411838054657,9.92542839050293,0.38728854060173,0.38728854060173,-0.456927180290222,76.8203125
0,1,6.825117,3015310886,5901171,1724,191630,0,0,2049.375,121.987915039063,1.06719887256622,-4.23529577255249,11.8253297805786,0.0232128798961639,0.0232128798961639,0.305432617664337,77.25390625
0,1,6.904137,3015351154,5901860,1690,191630,0,0,2049.765625,122.134399414063,-1.43090796470642,-0.689132928848267,15.0747833251953,-0.0549778714776039,-0.0549778714776039,0.0305432621389627,76.8125
0,1,6.964148,3015392238,5902555,1688,191630,0,0,2049.1015625,122.149658203125,-0.531206607818604,0.483350187540054,12.2703952789307,-0.0623082555830479,-0.0623082555830479,-0.276111096143723,76.81640625
0,1,6.97415,3015433017,5903234,1652,191630,0,0,2048.90600585938,122.158813476563,0.923629522323608,-0.205782756209373,10.9543418884277,0.0232128798961639,0.0232128798961639,-0.299323976039886,76.8671875
0,1,6.993155,3015474294,5903923,1673,191630,0,0,2049.4921875,122.177124023438,0.105284191668034,-1.71804666519165,10.6145610809326,0.0537561401724815,0.0537561401724815,0.533896267414093,79.28125
0,1,7.009158,3015515646,5904607,1653,191630,0,0,2049.375,122.271728515625,3.72801780700684,-2.94317197799683,8.57109069824219,0.304210871458054,0.304210871458054,-0.04764748737216,79.28515625
0,1,7.029164,3015556764,5905295,1669,191630,0,0,2049.0625,122.256469726563,-2.14875459671021,-4.13479804992676,6.47497797012329,0.162490159273148,0.162490159273148,0.494800835847855,76.81640625
0,1,7.047169,3015600850,5906022,1645,191630,0,0,2048.828125,122.183227539063,3.03409910202026,0.48813584446907,10.5906324386597,-0.101403623819351,-0.101403623819351,-0.180816113948822,76.98046875
0,1,7.10018,3015643393,5906715,1611,191630,0,0,2048.8671875,122.1923828125,1.27298164367676,2.28275299072266,8.87258720397949,0.289550095796585,0.289550095796585,-0.0867428630590439,76.97265625
0,1,7.162193,3015689461,5907475,1673,191630,0,0,2049.0234375,122.216796875,4.14915418624878,-0.344566464424133,13.945369720459,-0.108734011650085,-0.108734011650085,0.1795943826437,76.96875
0,1,7.180199,3015729675,5908141,1641,191630,0,0,2049.17944335938,122.235107421875,-0.622133910655975,-0.478564500808716,11.7822589874268,-0.298102229833603,-0.298102229833603,-0.0867428630590439,77.01953125
0,1,7.199201,3015776039,5908954,1754,191630,0,0,2049.0625,122.216796875,3.7471604347229,4.14436864852905,11.3467645645142,0.0464257597923279,0.0464257597923279,0.117286123335361,76.93359375
0,1,7.222208,3015817783,5909690,1809,191630,0,0,2049.375,122.256469726563,-4.30229473114014,4.04387044906616,9.54736232757568,-0.00855211354792118,-0.00855211354792118,0.0464257597923279,76.90625
0,1,7.23821,3015864588,5910524,1769,191630,0,0,2049.4921875,122.262573242188,-7.60917568206787,-0.942772150039673,8.34616565704346,-0.0390953756868839,-0.0390953756868839,-0.118507854640484,76.9765625
0,1,7.349236,3015905995,5911271,1804,191630,0,0,2049.140625,122.27783203125,-4.76171684265137,1.23948204517365,7.94417142868042,0.0305432621389627,0.0305432621389627,-0.11117747426033,76.9921875
0,1,7.378243,3015950859,5912075,1806,191630,0,0,2049.375,122.30224609375,2.86181592941284,4.75214576721191,7.97767066955566,-0.0623082555830479,-0.0623082555830479,0.0305432621389627,77.015625
0,1,7.397247,3015992701,5912821,1770,191630,0,0,2049.765625,122.308349609375,-1.62711942195892,1.49312138557434,10.4183492660522,-0.00855211354792118,-0.00855211354792118,-0.0794124826788902,77.0546875
0,1,7.42025,3016040733,5913667,1752,191630,0,0,2052.57788085938,122.457885742188,1.82811641693115,4.21615362167358,10.6097755432129,0.0928515195846558,0.0928515195846558,0.0696386322379112,77.07421875
0,1,7.437256,3016082155,5914384,1730,191630,0,0,2052.9296875,122.49755859375,-0.617348253726959,-2.54117751121521,8.80558681488037,0.0305432621389627,0.0305432621389627,0.0781907513737679,77.0625
0,1,7.469265,3016128250,5915173,1696,191630,0,0,2052.81225585938,122.482299804688,0.607776999473572,1.4261223077774,7.40817928314209,-0.01588249579072,-0.01588249579072,0.0623082555830479,77.0625
0,1,7.505282,3016170142,5915895,1735,191630,0,0,2052.96875,122.509765625,1.09112703800201,-0.555134892463684,11.4041929244995,-0.0232128798961639,-0.0232128798961639,0.101403623819351,77
0,1,7.555281,3016216465,5916692,1714,191630,0,0,2052.96875,122.500610351563,3.76151704788208,-3.18723964691162,5.95812845230103,0.0305432621389627,0.0305432621389627,-0.125838235020638,77.0625
0,1,7.59229,3016258084,5917396,1671,191630,0,0,2053.046875,122.515869140625,2.96231436729431,-1.7898313999176,11.5908327102661,0.0232128798961639,0.0232128798961639,0.0232128798961639,77.07421875
0,1,7.641304,3016302241,5918136,1680,191630,0,0,2052.6953125,122.500610351563,-2.14875459671021,0.803988397121429,6.44626426696777,-0.03176499158144,-0.03176499158144,-0.0952949747443199,77.07421875
0,1,7.683314,3016344042,5918829,1645,191630,0,3.55467200279236,2053.046875,122.512817382813,-2.50289249420166,2.91924357414246,10.4997062683105,0.0378736443817616,0.0378736443817616,0.0623082555830479,77.0625
0,1,7.747326,3016390597,5919603,1667,191630,0,208.476547241211,2053.32006835938,122.515869140625,1.82811641693115,-0.741775035858154,3.48394989967346,-0.318871647119522,-0.318871647119522,0.149051114916801,79.46875
0,1,7.767333,3016432204,5920286,1645,191630,0,332.109405517578,2052.81225585938,122.518920898438,0.957129001617432,-0.220139682292938,4.30229473114014,-0.0708603635430336,-0.0708603635430336,0.195476874709129,77.1953125
0,1,7.81534,3016477393,5921034,1632,191630,0,338.0859375,2052.65625,122.512817382813,2.21575355529785,-0.622133910655975,14.6823596954346,-0.0940732434391975,-0.0940732434391975,0.0464257597923279,77.0859375
0,1,7.879357,3016517591,5921704,1718,191630,0,289.921875,2052.890625,122.512817382813,3.29252409934998,4.13958311080933,12.294322013855,0.0305432621389627,0.0305432621389627,-0.01588249579072,77.12109375
0,1,7.903363,3016564596,5922501,1678,191630,0,151.25,2052.81225585938,122.515869140625,-3.16809725761414,0.287138730287552,9.71485996246338,0.00733038270846009,0.00733038270846009,0.0696386322379112,77.109375
0,1,7.940369,3016605899,5923227,1771,191630,0,21.4062328338623,2052.96875,122.5341796875,6.15912580490112,0.59820568561554,-0.473778903484344,-0.379958152770996,-0.379958152770996,-0.0244346093386412,77.09375
0,1,7.98138,3016647043,5923948,1763,191630,0,0,2053.08569335938,122.549438476563,3.5461630821228,-1.17726874351501,13.3088798522949,0.0232128798961639,0.0232128798961639,0.133168622851372,77.1171875
0,1,8.056398,3016688060,5924671,1744,191630,0,0,2052.7734375,122.564697265625,-0.713061153888702,-2.66560459136963,15.0556402206421,-0.03176499158144,-0.03176499158144,0.140499010682106,77.15234375
0,1,8.071399,3016729391,5925393,1744,191630,0,0,2052.85131835938,122.564697265625,1.29212415218353,2.7661030292511,8.48494911193848,0.0537561401724815,0.0537561401724815,0.0781907513737679,77.1171875
0,1,8.124415,3016770465,5926102,1715,191630,0,0,2052.9296875,122.576904296875,0.354137748479843,1.99082839488983,8.68115997314453,0.0146607654169202,0.0146607654169202,0.00733038270846009,77.14453125
0,1,8.146418,3016811952,5926811,1704,191631,67,0,2053.125,122.579956054688,3.6370906829834,2.37846565246582,6.08255529403687,0.00733038270846009,0.00733038270846009,0.0390953756868839,77.16015625
0,1,8.193426,3016854433,5927523,1675,191631,27,0,2052.85131835938,122.567749023438,0.981057286262512,-1.60797679424286,9.83928680419922,0.00733038270846009,0.00733038270846009,-0.0794124826788902,77.1328125
0,1,8.235439,3016897419,5928236,1635,191631,17,0,2052.96875,122.5830078125,0.00957129057496786,-0.272781759500504,13.3998069763184,-0.00855211354792118,-0.00855211354792118,0.0623082555830479,77.0859375
0,1,8.295449,3016939445,5928932,1679,191631,12,0,2052.81225585938,122.576904296875,2.15354061126709,4.19701099395752,10.8490571975708,0.0146607654169202,0.0146607654169202,-0.01588249579072,77.1796875
0,1,8.321455,3016980492,5929612,1644,191631,10,0,2052.734375,122.57080078125,0.416351169347763,1.7898313999176,10.4709920883179,-0.0390953756868839,-0.0390953756868839,0.0232128798961639,77.29296875
0,1,8.357464,3017021527,5930306,1703,191631,8,0,2050.4296875,122.412109375,-0.401994198560715,0.272781759500504,11.475977897644,0.0146607654169202,0.0146607654169202,0.0940732434391975,77.2421875
0,1,8.396475,3017061748,5930985,1679,191631,7,0,2049.765625,122.415161132813,-1.2825528383255,0.397208601236343,9.50907707214355,0.0464257597923279,0.0464257597923279,0.0549778714776039,77.22265625
0,1,8.440486,3017102913,5931706,1750,191631,6,0,2049.3359375,122.412109375,-4.08215570449829,0.588634371757507,8.75294494628906,0.0232128798961639,0.0232128798961639,-0.01588249579072,77.2578125
0,1,8.478491,3017144287,5932432,1810,191631,5,0,2049.453125,122.421264648438,-0.947557806968689,-0.57906311750412,15.0364980697632,0.0378736443817616,0.0378736443817616,-0.11117747426033,77.29296875
0,1,8.533504,3017188125,5933219,1779,191631,4,0,2049.6875,122.430419921875,3.8859441280365,3.84287333488464,6.25005292892456,0.0537561401724815,0.0537561401724815,0.0146607654169202,77.23828125
0,1,8.563512,3017229135,5933949,1773,191631,4,0,2049.92163085938,122.415161132813,3.40259408950806,-3.97208571434021,11.1314115524292,-0.0708603635430336,-0.0708603635430336,0.0305432621389627,77.40625
0,1,8.605528,3017270963,5934684,1760,191631,4,0,2049.453125,117.080688476563,2.42153668403625,0.82791668176651,9.4325065612793,0.0610865242779255,0.0610865242779255,-0.04764748737216,77.3359375
0,1,8.648201,3017311779,5935402,1743,191631,3,0,2049.7265625,113.494873046875,1.31126689910889,-3.79501676559448,10.1312122344971,0.130725160241127,0.130725160241127,-0.040317103266716,77.33984375
0,1,8.687209,3017353075,5936123,1755,191631,3,0,2049.4921875,112.094116210938,-3.0436704158783,4.99142837524414,10.6959180831909,0.0305432621389627,0.0305432621389627,0.0305432621389627,77.31640625
0,1,8.730219,3017393966,5936831,1720,191631,3,0,2049.6875,109.408569335938,4.73778867721558,1.00019991397858,10.4853487014771,-0.01588249579072,-0.01588249579072,-0.0635299831628799,77.35546875
0,1,8.795233,3017434499,5937528,1710,191631,3,0,2049.7265625,103.494262695313,1.27298164367676,1.78025996685028,13.3567361831665,0.00733038270846009,0.00733038270846009,0.0855211317539215,77.28515625
0,1,8.811238,3017477155,5938252,1717,191631,2,0,2049.84375,98.138427734375,-4.76171684265137,-5.45563554763794,5.1110692024231,-0.0549778714776039,-0.0549778714776039,0.219911485910416,77.41796875
0,1,8.853249,3017518687,5939014,1833,191631,2,0,2049.453125,95.5413818359375,-5.09192657470703,-0.373280346393585,11.030912399292,0.100181899964809,0.100181899964809,0.0232128798961639,77.34375
0,1,8.906262,3017559229,5939765,1943,191631,2,0,2049.6875,94.68994140625,3.99122834205627,3.28773856163025,13.2562370300293,0.0378736443817616,0.0378736443817616,-0.0244346093386412,77.41015625
0,1,8.946268,3017603350,5940608,1879,191631,2,0,2049.296875,94.6258544921875,-1.89511561393738,0.842273533344269,17.9748821258545,0.0378736443817616,0.0378736443817616,-0.205250710248947,77.375
0,1,8.980279,3017645843,5941523,2164,191631,2,0,2049.296875,94.720458984375,1.49312138557434,-2.50289249420166,15.3475646972656,-0.108734011650085,-0.108734011650085,0.0390953756868839,77.45703125
0,1,9.04429,3017685937,5942446,2385,191631,2,0,2049.453125,94.8486328125,-11.2127676010132,9.24108123779297,-5.63749027252197,-0.318871647119522,-0.318871647119522,-0.652404069900513,77.484375
0,1,9.063295,3017728497,5943488,2569,191631,2,0,2050.0390625,94.915771484375,-5.38863611221313,-9.64307498931885,22.5212478637695,-0.295658797025681,-0.295658797025681,0.0696386322379112,77.4765625
0,1,9.106308,3017769973,5944562,2646,191631,2,0,2049.41381835938,94.8760986328125,-9.20279598236084,31.2119789123535,-1.15812623500824,-0.108734011650085,-0.108734011650085,-0.448375105857849,79.78515625
0,1,9.154315,3017814025,5945743,2784,191632,51,0,2049.453125,94.8272705078125,-8.21695327758789,9.10708332061768,-0.583848714828491,-0.388510286808014,-0.388510286808014,1.46118974685669,77.51171875
0,1,9.20933,3017855106,5946899,2910,191632,25,0,2049.64819335938,94.964599609375,25.6462726593018,-27.2590351104736,8.9108715057373,0.945619404315948,0.945619404315948,0.455705463886261,77.53125
0,1,9.234336,3017899558,5948199,2936,191635,325,0,2049.6875,95.39794921875,17.5346031188965,17.8791694641113,3.67537546157837,0.542448282241821,0.542448282241821,1.27182137966156,79.8359375
0,1,9.283343,3017941009,5949328,2689,191648,650,0,2049.53125,95.64208984375,40.1707077026367,18.2380962371826,14.7541446685791,-0.698829829692841,-0.698829829692841,-0.67683869600296,77.4765625
0,1,9.321354,3017983135,5950427,2661,191663,714,0,2049.21875,94.6197509765625,39.7160720825195,2.26839566230774,-18.0275249481201,0.580321967601776,0.580321967601776,-2.42880010604858,77.53125
0,1,9.358361,3018023239,5951451,2472,191676,658,0,2052.890625,92.3309326171875,1.95732891559601,-8.7768726348877,24.373291015625,-0.682947337627411,-0.682947337627411,-0.621860802173615,77.58203125
0,1,9.398372,3018064255,5952492,2418,191688,540,0,2052.265625,89.1143798828125,37.4333152770996,-18.8889408111572,-6.89611482620239,0.278554528951645,0.278554528951645,0.572991549968719,77.59765625
0,1,9.457386,3018113269,5953709,2386,191702,544,0,2052.421875,87.0941162109375,-11.9449710845947,-13.1892385482788,25.6367034912109,-0.0708603635430336,-0.0708603635430336,-1.57236707210541,77.6171875
0,1,9.494392,3018155395,5954755,2472,191711,441,0,2052.81225585938,86.8621826171875,11.0739831924438,-3.86201596260071,21.1621227264404,0.332310706377029,0.332310706377029,-0.496022582054138,77.7109375
0,1,9.539415,3018196913,5955803,2541,191717,321,0,2053.203125,87.5518798828125,-1.51226401329041,-9.27458095550537,-26.2684078216553,0.216246291995049,0.216246291995049,3.11052584648132,77.66796875
0,1,9.59246,3018237582,5956825,2495,191728,596,0,2053.125,92.2760009765625,-3.93858599662781,3.07238435745239,16.5679035186768,-0.474031418561935,-0.474031418561935,-1.24983036518097,77.625
0,1,9.617458,3018278918,5957862,2581,191741,679,0,2052.9296875,96.942138671875,-2.91924357414246,-21.899112701416,35.6339149475098,0.433714330196381,0.433714330196381,-1.92544722557068,77.5859375
0,1,9.656471,3018321771,5958910,2405,191754,585,0,2052.734375,97.509765625,0.995414197444916,9.31765174865723,-34.6432838439941,-0.449596792459488,-0.449596792459488,1.6334536075592,77.67578125
0,1,9.698476,3018364197,5959879,2241,191766,543,0,2052.85131835938,97.5738525390625,-15.6155605316162,-12.739387512207,5.59441900253296,0.860098242759705,0.860098242759705,-1.18752193450928,77.6953125
0,1,9.780496,3018406499,5960839,2210,191778,518,0,2052.57788085938,97.5494384765625,-6.92482852935791,-5.254638671875,27.6131744384766,0.426383942365646,0.426383942365646,0.612086951732635,77.67578125
0,1,9.784497,3018447604,5961739,2167,191788,472,0,2052.6171875,102.1240234375,8.01595592498779,6.33619451522827,-0.110069841146469,0.146607652306557,0.146607652306557,-0.267558962106705,77.6484375
0,1,9.827504,3018488784,5962617,2176,191797,392,0,2053.1640625,112.380981445313,11.9928274154663,-2.40717959403992,21.2195510864258,0.0146607654169202,0.0146607654169202,0.518013715744019,77.6171875
0,1,9.864514,3018528789,5963451,2032,191807,444,0,2052.7734375,116.51611328125,10.8490571975708,0,-0.0143569353967905,0.0146607654169202,0.0146607654169202,-0.173485726118088,77.6171875
0,1,9.908523,3018569482,5964258,1936,191816,481,0,2052.9296875,116.656494140625,-17.7499580383301,-0.899701356887817,20.2193508148193,-0.201585531234741,-0.201585531234741,0.21135938167572,77.6171875
0,1,9.964537,3018611233,5965048,1871,191826,462,0,2053.08569335938,114.16015625,12.3517503738403,12.4618215560913,7.99681329727173,-0.0855211317539215,-0.0855211317539215,0.0855211317539215,77.69140625
0,1,9.99054,3018656019,5965867,1806,191837,457,0,2053.1640625,113.803100585938,-2.67039012908936,-3.50787806510925,11.7487602233887,-0.0940732434391975,-0.0940732434391975,0.21135938167572,77.625
0,1,10.034554,3018696769,5966597,1756,191846,430,0,2052.9296875,112.673950195313,0.100498549640179,-1.57926309108734,6.77168846130371,-0.0781907513737679,-0.0781907513737679,-0.0635299831628799,77.66015625
0,1,10.07556,3018741225,5967377,1762,191856,450,0,2053.0078125,112.802124023438,-8.8773717880249,1.23948204517365,11.279767036438,-0.04764748737216,-0.04764748737216,-0.0635299831628799,79.359375
0,1,10.135575,3018782992,5968099,1711,191865,438,0,2053.046875,112.673950195313,-1.03369951248169,7.0731840133667,6.84347295761108,-0.01588249579072,-0.01588249579072,-0.0867428630590439,77.65234375
0,1,10.166587,3018828105,5968870,1701,191875,435,0,2052.5,111.077880859375,-8.72901630401611,-4.35493755340576,12.380464553833,-0.0623082555830479,-0.0623082555830479,-0.04764748737216,77.65234375
0,1,10.204593,3018869041,5969555,1683,191883,420,0,2052.890625,105.963134765625,-2.59381985664368,-6.21176767349243,6.74776029586792,0.00733038270846009,0.00733038270846009,0.533896267414093,77.66015625
0,1,10.244599,3018909878,5970241,1656,191892,419,0,2052.81225585938,104.388427734375,3.75673174858093,-2.04825615882874,14.1942234039307,-0.124616511166096,-0.124616511166096,0.565661191940308,77.6484375
0,1,10.307614,3018952034,5970943,1683,191901,435,0,2052.96875,104.473876953125,3.57966279983521,3.17766880989075,11.4329071044922,0.0537561401724815,0.0537561401724815,-0.00855211354792118,77.6328125
0,1,10.356626,3018993572,5971631,1636,191910,424,0,2052.4609375,104.461669921875,-2.64167618751526,3.77108860015869,7.40817928314209,-0.00855211354792118,-0.00855211354792118,-0.03176499158144,77.625
0,1,10.378629,3019034812,5972355,1792,191919,466,0,2049.53125,104.354858398438,4.85264444351196,1.37348020076752,11.8301153182983,-0.263893783092499,-0.263893783092499,0.172263994812965,77.6171875
0,1,10.432644,3019076389,5973055,1760,191928,438,0,2049.609375,104.351806640625,15.2949228286743,-0.856630504131317,-3.56051993370056,0.0842994004487991,0.0842994004487991,0.0940732434391975,77.609375
0,1,10.451646,3019117084,5973777,1742,191937,450,0,2049.53125,104.367065429688,-2.24925327301025,9.63350391387939,5.73798894882202,-0.0623082555830479,-0.0623082555830479,-0.00855211354792118,77.59765625
0,1,10.491835,3019157626,5974481,1767,191946,431,0,2049.4921875,105.160522460938,10.6289176940918,3.90508675575256,14.9216413497925,-0.0940732434391975,-0.0940732434391975,-0.0635299831628799,77.609375
0,1,10.535334,3019200050,5975210,1691,191955,424,0,2049.453125,106.84814453125,-8.04467010498047,1.07677030563354,12.9021005630493,0.100181899964809,0.100181899964809,-0.566882908344269,77.6015625
0,1,10.575337,3019241370,5975915,1703,191964,424,0,2049.7265625,106.582641601563,4.4793643951416,1.87118721008301,12.8686008453369,-0.00855211354792118,-0.00855211354792118,-0.189368218183517,77.56640625
0,1,10.618351,3019283569,5976618,1670,191973,410,0,2049.92163085938,106.442260742188,-11.5429763793945,-0.315852612257004,11.279767036438,-0.274889349937439,-0.274889349937439,0.101403623819351,77.609375
0,1,10.671362,3019325481,5977341,1700,191982,423,0,2049.765625,107.476806640625,2.95752882957458,4.96750020980835,7.24546718597412,-0.312763005495071,-0.312763005495071,-0.040317103266716,78.44921875
0,1,10.702368,3019366879,5978051,1776,191990,422,0,2049.7265625,109.991455078125,3.23031044006348,5.72841739654541,14.6823596954346,-0.0855211317539215,-0.0855211317539215,0.250454753637314,77.59375
0,1,10.768384,3019408210,5978767,1705,191999,427,0,2049.609375,110.540771484375,10.2556390762329,1.34955203533173,9.60478973388672,0.0842994004487991,0.0842994004487991,0.1795943826437,77.6328125
0,1,10.79039,3019455447,5979586,1739,192009,416,0,2049.6875,108.517456054688,-12.6580324172974,-0.48813584446907,0.545563519001007,0.0232128798961639,0.0232128798961639,-0.386066824197769,77.625
0,1,10.835397,3019497149,5980296,1724,192018,421,0,2049.296875,107.989501953125,14.6057891845703,2.79960250854492,3.89551520347595,-0.0390953756868839,-0.0390953756868839,-0.056199599057436,77.58984375
0,1,10.876406,3019538919,5981008,1590,192027,423,0,2049.140625,108.285522460938,-2.63210463523865,1.7036896944046,18.5443744659424,0.0146607654169202,0.0146607654169202,0.321315109729767,77.59375
0,1,10.914435,3019579873,5981718,1777,192036,448,0,2049.609375,108.49609375,-3.89551520347595,-0.626919567584991,8.58066177368164,0.0464257597923279,0.0464257597923279,0.204028993844986,77.609375
0,1,10.959449,3019621368,5982439,1713,192044,423,0,2050.15600585938,108.59375,1.22512519359589,1.11505544185638,10.0785694122314,-0.119729585945606,-0.119729585945606,0.0146607654169202,77.6328125
0,1,10.997457,3019662950,5983174,1774,192053,444,0,2049.64819335938,108.547973632813,-4.62771892547607,-0.775274515151978,4.25922441482544,-0.101403623819351,-0.101403623819351,-0.04764748737216,77.6328125
0,1,11.038465,3019704258,5983896,1779,192062,433,0,2049.64819335938,108.526611328125,6.40797901153564,5.00099897384644,-2.46939301490784,0.193033412098885,0.193033412098885,0.0684169083833694,77.6484375
0,1,11.080481,3019745981,5984638,1751,192071,423,0,2049.5703125,108.648681640625,-4.00079965591431,1.62711942195892,8.71944522857666,0.0232128798961639,0.0232128798961639,-0.212581098079681,77.55859375
0,1,11.150495,3019787620,5985367,1756,192080,442,0,2049.8046875,108.688354492188,-3.9625141620636,-0.253639191389084,11.0835542678833,0,0,-0.056199599057436,77.6171875
0,1,11.164494,3019830158,5986072,1699,192089,417,0,2049.0234375,108.75244140625,11.0883407592773,-1.7850456237793,7.04446983337402,0.00733038270846009,0.00733038270846009,-0.00855211354792118,77.703125
0,1,11.212506,3019871332,5986771,1633,192098,418,0,2049.1015625,108.419799804688,2.30189538002014,-5.9533429145813,13.2418804168701,-1.35734248161316,-1.35734248161316,0.36041048169136,77.609375
0,1,11.253515,3019914022,5987489,1705,192107,411,0,2049.41381835938,108.09326171875,-2.172682762146,-2.18225407600403,9.4995059967041,-0.101403623819351,-0.101403623819351,0.101403623819351,77.6484375
0,1,11.289526,3019955613,5988199,1684,192116,421,0,2049.7265625,107.99560546875,10.4949197769165,5.17806768417358,13.945369720459,0.0537561401724815,0.0537561401724815,0.250454753637314,80.0078125
0,1,11.335536,3019996388,5988897,1741,192125,432,0,2049.6875,107.99560546875,-7.62831878662109,2.45503616333008,16.4530487060547,-0.0232128798961639,-0.0232128798961639,0.156381502747536,77.59375
0,1,11.374542,3020037610,5989601,1688,192133,406,0,2052.3046875,108.309936523438,0.143569365143776,-2.32582354545593,12.3134660720825,0.0537561401724815,0.0537561401724815,-0.370184332132339,77.6328125
0,1,11.413557,3020078464,5990305,1727,192142,429,0,2052.96875,108.328247070313,-0.291924357414246,3.90508675575256,5.35035085678101,0.0232128798961639,0.0232128798961639,-0.0867428630590439,79.9375
0,1,11.455561,3020120993,5991023,1691,192151,408,0,2052.85131835938,108.407592773438,1.27776730060577,-0.842273533344269,-2.2109682559967,0.0464257597923279,0.0464257597923279,0.0855211317539215,77.6796875
0,1,11.499571,3020164591,5991766,1669,192160,415,0,2052.81225585938,108.50830078125,17.4149627685547,0.0191425811499357,16.0175552368164,0.100181899964809,0.100181899964809,0.24312436580658,78.484375
0,1,11.54258,3020205832,5992461,1721,192168,420,0,2052.734375,108.236694335938,5.3647084236145,-1.26341044902802,9.87278652191162,0.239459171891212,0.239459171891212,0.0390953756868839,77.7734375
0,1,11.604596,3020247286,5993160,1664,192177,418,0,2052.81225585938,107.608032226563,-2.81395936012268,0.263210475444794,9.92542839050293,0.0464257597923279,0.0464257597923279,0.140499010682106,77.75390625
0,1,11.627602,3020288113,5993862,1729,192186,427,0,2052.734375,107.43408203125,7.92024326324463,0.521635353565216,5.56091976165771,-0.00855211354792118,-0.00855211354792118,0.124616511166096,77.74609375
0,1,11.670609,3020328783,5994552,1692,192194,413,0,2053.2421875,107.498168945313,-6.35055112838745,-3.11066937446594,19.8221416473389,-0.0623082555830479,-0.0623082555830479,0.39217546582222,77.71875
0,1,11.746627,3020370279,5995282,1735,192203,430,0,2052.6171875,107.504272460938,8.84865856170654,-4.96271419525146,15.8069858551025,-0.0390953756868839,-0.0390953756868839,-0.11117747426033,77.7578125
0,1,11.822646,3020411596,5995983,1638,192212,419,0,2052.9296875,107.379150390625,-1.74197494983673,-4.17308282852173,8.08774089813232,0.0537561401724815,0.0537561401724815,-0.0244346093386412,77.65234375
0,1,11.854662,3020452019,5996669,1671,192220,413,0,2052.34350585938,105.780029296875,1.48355007171631,6.8386869430542,5.72841739654541,0.0305432621389627,0.0305432621389627,-0.04764748737216,77.75390625
0,1,11.865653,3020494234,5997371,1658,192229,396,0,2052.3828125,105.178833007813,-5.5657057762146,-2.02911353111267,13.72523021698,-0.117286123335361,-0.117286123335361,-0.283441454172134,77.79296875
0,1,11.901663,3020536133,5998054,1613,192237,402,0,2052.3046875,104.537963867188,-2.17746877670288,-2.82353067398071,12.0693979263306,-0.01588249579072,-0.01588249579072,0.140499010682106,77.8125
0,1,11.991683,3020577712,5998758,1698,192246,408,0,2052.5,100.540161132813,-6.54197692871094,0.363709032535553,0.425922423601151,0.162490159273148,0.162490159273148,-0.393397212028503,77.765625
0,1,12.000685,3020619035,5999449,1744,192254,398,0,2053.1640625,97.613525390625,5.07278394699097,-0.583848714828491,4.48893547058105,0.123394772410393,0.123394772410393,-0.212581098079681,77.75390625
0,1,12.019689,3020661002,6000212,1798,192264,449,0,2052.96875,95.263671875,-7.53739166259766,1.45005059242249,16.0510540008545,-0.140499010682106,-0.140499010682106,0.455705463886261,77.83203125
0,1,12.037695,3020701791,6000979,1979,192272,452,0,2053.046875,93.402099609375,-2.83310198783875,-2.86660146713257,21.9852561950684,-0.155159771442413,-0.155159771442413,0.0623082555830479,77.8515625
0,1,12.091705,3020743411,6001787,1942,192282,437,0,2052.9296875,90.9881591796875,-17.5250339508057,-0.401994198560715,10.3130655288696,-0.0708603635430336,-0.0708603635430336,0.0855211317539215,77.8203125
0,1,12.120716,3020785740,6002685,2090,192292,424,0,2053.125,86.474609375,-0.636490821838379,2.20139670372009,15.519847869873,0.162490159273148,0.162490159273148,-0.0867428630590439,77.73046875
0,1,12.181728,3020827637,6003610,2260,192301,534,0,2052.81225585938,83.8714599609375,-3.49830675125122,-7.95852851867676,3.9625141620636,0,0,0.62796950340271,77.75
0,1,12.208747,3020871505,6004612,2385,192313,551,0,2052.85131835938,83.7615966796875,56.7864646911621,-3.90987229347229,19.9322128295898,0.0610865242779255,0.0610865242779255,-0.056199599057436,77.8203125
0,1,12.24574,3020911814,6005571,2490,192324,588,0,2053.046875,83.6761474609375,-17.3766784667969,4.18265390396118,9.59043312072754,0.364075690507889,0.364075690507889,-0.33841934800148,77.80859375
0,1,12.287749,3020952759,6006576,2404,192337,590,0,2052.890625,83.4625244140625,21.6263294219971,-36.3278312683105,-22.5499610900879,-1.04702293872833,-1.04702293872833,0.219911485910416,77.81640625
0,1,12.32776,3020993626,6007585,2477,192349,596,0,2053.671875,83.2794189453125,-4.15394020080566,-2.94795751571655,24.5072917938232,0.913854360580444,0.913854360580444,-0.322536826133728,77.8203125
0,1,12.37477,3021034242,6008646,2587,192362,659,0,2049.453125,83.0108642578125,-16.4721908569336,-11.2462663650513,28.1874504089355,1.00792765617371,1.00792765617371,0.525344133377075,77.7578125
0,1,12.412778,3021075546,6009744,2665,192376,658,0,2049.64819335938,82.8399658203125,-18.3912334442139,-1.9812570810318,-11.9784698486328,-0.295658797025681,-0.295658797025681,-0.935845494270325,77.82421875
0,1,12.46479,3021116755,6010861,2705,192390,658,0,2049.609375,82.7789306640625,19.3818626403809,0.756132006645203,-14.1894388198853,-0.279776275157928,-0.279776275157928,-0.511905074119568,77.8359375
0,1,12.492796,3021158164,6012004,2771,192405,739,0,2049.453125,82.7667236328125,37.3376045227051,9.41814994812012,-12.1028966903687,1.17774820327759,1.17774820327759,1.29625594615936,77.796875
0,1,12.538809,3021199590,6013166,2816,192420,811,0,2049.64819335938,82.7423095703125,17.912670135498,-9.72443199157715,-1.61276257038116,-0.643851935863495,-0.643851935863495,0.344527989625931,77.8359375
0,1,12.573813,3021239858,6014322,2897,192436,804,0,2049.5703125,82.8094482421875,11.0452690124512,-15.01735496521,24.9427833557129,0.480140089988708,0.480140089988708,-1.73730075359344,77.953125
0,1,12.623825,3021282574,6015567,2882,192453,795,0,2049.4921875,82.855224609375,-28.6181583404541,2.80438852310181,-5.01057100296021,0.604756593704224,0.604756593704224,-0.331088960170746,77.84375
0,1,12.672842,3021324419,6016801,2938,192470,796,0,2049.3359375,82.8125,2.08175563812256,-6.05862712860107,-18.2237377166748,-1.13987445831299,-1.13987445831299,0,77.89453125
0,1,12.700845,3021365891,6018039,2954,192487,822,0,2049.3359375,82.8094482421875,-17.5872459411621,11.030912399292,-7.47996377944946,0.720820963382721,0.720820963382721,0.447153359651566,77.82421875
0,1,12.76586,3021407332,6019244,2892,192504,879,0,2049.64819335938,82.794189453125,9.32722282409668,3.34995174407959,-4.92921495437622,-0.713490605354309,-0.713490605354309,-0.835663616657257,77.828125
0,1,12.784863,3021449094,6020494,2910,192522,884,0,2049.7265625,82.84912109375,-24.8614253997803,-2.18225407600403,-14.3090791702271,-0.527787566184998,-0.527787566184998,-0.755029439926147,77.82421875
0,1,12.82787,3021489954,6021707,2884,192539,870,0,2049.5703125,82.8643798828125,26.847469329834,12.9547414779663,16.3286228179932,0.496022582054138,0.496022582054138,1.12277030944824,77.87109375
0,1,12.870882,3021531736,6022971,2875,192558,862,0,2049.5703125,82.861328125,-23.6171607971191,4.96750020980835,7.59960508346558,0.808785557746887,0.808785557746887,-2.94681406021118,77.890625
0,1,12.91289,3021572862,6024230,2933,192576,895,0,2049.765625,82.8643798828125,-8.33180904388428,10.451849937439,16.041482925415,-0.520457148551941,-0.520457148551941,1.89368224143982,77.87890625
0,1,12.967907,3021614225,6025506,3006,192595,915,0,2050.3125,82.9254150390625,-4.14436864852905,21.7124729156494,-0.468993246555328,0.0537561401724815,0.0537561401724815,-0.660956203937531,77.859375
0,1,12.990908,3021656787,6026831,3144,192615,938,0,2049.5703125,82.9986572265625,42.860237121582,3.86201596260071,15.4767770767212,0.0464257597923279,0.0464257597923279,0.572991549968719,77.8046875
0,1,13.035917,3021698046,6028144,3270,192635,952,0,2049.84375,82.928466796875,-6.26919603347778,1.65104758739471,26.4167613983154,-0.0549778714776039,-0.0549778714776039,-1.57969748973846,77.859375
0,1,13.073928,3021739813,6029469,3391,192655,982,0,2048.90600585938,82.9437255859375,19.9226417541504,-22.7461738586426,-7.92024326324463,-0.356745302677155,-0.356745302677155,-2.17712378501892,77.92578125
0,1,13.117944,3021781718,6030812,3416,192676,1009,0,2049.453125,82.9742431640625,-69.4157791137695,-6.75733137130737,30.5754890441895,0.193033412098885,0.193033412098885,0.816115975379944,77.8671875
0,1,13.165947,3021827735,6032281,3117,192700,1031,0,2049.765625,83.0322265625,20.5734901428223,-7.7383885383606,10.6528453826904,-0.791681349277496,-0.791681349277496,0.92607170343399,77.8671875
0,1,13.205958,3021869453,6033615,3058,192721,1037,0,2049.21875,82.9376220703125,2.47896409034729,-32.0781784057617,35.2797775268555,-0.342084527015686,-0.342084527015686,0.415388375520706,78.484375
0,1,13.251973,3021913759,6035027,3115,192744,1071,0,2049.3359375,82.8765869140625,-19.1042976379395,34.2030067443848,35.2893486022949,0.0464257597923279,0.0464257597923279,-0.180816113948822,77.8515625
0,1,13.289056,3021954548,6036347,3143,192765,1097,0,2049.17944335938,82.87353515625,49.0624389648438,3.4073793888092,20.8941268920898,0.0842994004487991,0.0842994004487991,-1.66644024848938,77.90625
0,1,13.338078,3021995914,6037696,3206,192787,1076,0,2049.64819335938,82.8948974609375,27.3260345458984,13.2131671905518,-24.6412868499756,-0.342084527015686,-0.342084527015686,0.840550541877747,77.9296875
0,1,13.373093,3022038462,6039096,3372,192811,1078,0,2052.7734375,82.9742431640625,-14.0027990341187,-5.254638671875,-16.0606250762939,0.55710905790329,0.55710905790329,0.510683357715607,77.89453125
0,1,13.415087,3022079444,6040452,3386,192834,1166,0,2052.5390625,82.9986572265625,-40.2281341552734,-22.7605285644531,32.102108001709,0.201585531234741,0.201585531234741,0.109955742955208,77.93359375
0,1,13.493276,3022120400,6041818,3369,192858,1186,0,2052.85131835938,83.0078125,10.7916307449341,18.1328105926514,-16.5152626037598,-0.520457148551941,-0.520457148551941,2.56807732582092,80.23046875
0,1,13.528275,3022161818,6043190,3328,192882,1200,0,2052.421875,82.9986572265625,18.3577365875244,-7.10668325424194,0.186640173196793,0.441044718027115,0.441044718027115,-1.07756626605988,77.87890625
0,1,13.566286,3022202438,6044547,3333,192906,1209,0,2052.65625,83.001708984375,-34.8969268798828,13.0504550933838,20.0039958953857,-0.03176499158144,-0.03176499158144,-0.166155353188515,77.92578125
0,1,13.578289,3022243588,6045920,3320,192931,1154,0,2053.32006835938,83.0047607421875,6.29312419891357,-17.084753036499,29.3312206268311,0.781907498836517,0.781907498836517,3.47215795516968,77.875
0,1,13.624296,3022286339,6047351,3302,192957,1239,0,2052.7734375,83.04443359375,-20.1906394958496,-11.9832553863525,-15.8739852905273,-0.442266404628754,-0.442266404628754,1.57847571372986,77.8515625
0,1,13.671309,3022327883,6048708,3305,192984,1308,0,2053.1640625,83.221435546875,4.98664236068726,-24.7369995117188,-2.16311192512512,1.07756626605988,1.07756626605988,0.204028993844986,80.22265625
0,1,13.705314,3022370469,6050108,3318,193011,1240,0,2052.96875,83.1512451171875,29.0105819702148,17.9892406463623,54.1687202453613,-0.0390953756868839,-0.0390953756868839,1.07634449005127,77.890625
0,1,13.761336,3022411533,6051438,3185,193037,1297,0,2052.6171875,83.0902099609375,-45.6837730407715,-20.415563583374,14.5483627319336,-0.0855211317539215,-0.0855211317539215,-0.605978310108185,78.2109375
0,1,13.78734,3022451909,6052774,3098,193063,1311,0,2053.08569335938,83.270263671875,30.2309226989746,16.0031986236572,-0.775274515151978,-0.535117924213409,-0.535117924213409,-1.02258837223053,77.8984375
0,1,13.831342,3022493355,6054142,3084,193090,1250,0,2044.6484375,83.3160400390625,-0.401994198560715,42.7214584350586,15.1130676269531,-0.101403623819351,-0.101403623819351,-0.056199599057436,77.94921875
0,1,13.876357,3022540974,6055740,3492,193120,1287,0,2052.3828125,84.222412109375,0.626919567584991,4.02472734451294,7.60917568206787,0.239459171891212,0.239459171891212,-1.78372645378113,77.984375
0,1,13.958374,3022592954,6057453,3254,193154,1287,0,2052.734375,87.9486083984375,46.4064064025879,17.8791694641113,-14.5196485519409,-0.581543684005737,-0.581543684005737,1.08367490768433,78.109375
0,1,13.972375,3022635841,6058861,3198,193183,1350,0,2053.046875,87.2467041015625,-67.233528137207,28.225736618042,2.70867538452148,0.604756593704224,0.604756593704224,-2.39703512191772,80.4296875
0,1,14.012383,3022677376,6060204,3119,193210,1300,0,2052.96875,84.0576171875,28.6373023986816,18.6065883636475,2.03389930725098,0.332310706377029,0.332310706377029,-0.377514719963074,77.9765625
0,1,14.071398,3022718090,6061526,3157,193237,1302,0,2052.890625,83.63037109375,-8.84865856170654,18.372091293335,36.8446846008301,-0.295658797025681,-0.295658797025681,-0.511905074119568,77.94921875
0,1,14.161418,3022758958,6062855,3264,193265,1380,0,2052.265625,83.5235595703125,-15.2901363372803,-39.3475723266602,14.8881425857544,-0.379958152770996,-0.379958152770996,0.0390953756868839,77.91015625
0,1,14.172422,3022800514,6064212,3372,193293,1317,0,2052.890625,83.36181640625,0.531206607818604,-18.8793716430664,5.67098951339722,-0.775798857212067,-0.775798857212067,2.29440999031067,77.99609375
0,1,14.189425,3022841623,6065531,3388,193322,1405,0,2052.57788085938,83.3740234375,-39.6012153625488,1.49790692329407,-5.48913526535034,0.496022582054138,0.496022582054138,-0.189368218183517,77.88671875
0,1,14.22043,3022883392,6066875,3128,193351,1445,0,2052.890625,83.36181640625,15.1417808532715,8.50887680053711,54.2548599243164,-1.10200083255768,-1.10200083255768,1.01281452178955,77.8984375
0,1,14.279447,3022925668,6068260,3200,193382,1444,0,2052.57788085938,83.282470703125,-19.2382946014404,-6.44147920608521,-24.9284248352051,0.355523556470871,0.355523556470871,4.1722092628479,77.828125
0,1,14.301452,3022966743,6069612,3255,193411,1418,0,2052.9296875,83.11767578125,-43.3483734130859,-17.7260284423828,1.11026978492737,0,0,-2.44468259811401,78
0,1,14.34246,3023008103,6070979,3257,193441,1444,0,2049.6875,83.062744140625,-7.08754110336304,30.9535541534424,18.8841571807861,0.278554528951645,0.278554528951645,-1.08489656448364,80.0546875
0,1,14.397472,3023049561,6072353,3305,193471,1412,0,2049.8046875,83.1451416015625,25.7467708587646,5.09671258926392,7.39382219314575,-0.852767884731293,-0.852767884731293,1.79105687141418,77.91015625
0,1,14.44349,3023092100,6073774,3494,193502,1508,0,2049.53125,83.2550048828125,-23.4783744812012,-14.1176528930664,17.8887424468994,0.0928515195846558,0.0928515195846558,2.28585767745972,77.90625
0,1,14.468496,3023134519,6075178,3307,193535,1503,0,2049.609375,85.26611328125,6.10648345947266,10.8873434066772,29.1254367828369,0.50335294008255,0.50335294008255,0.463035851716995,77.890625
0,1,14.510513,3023176278,6076587,3412,193567,1580,0,2049.1015625,98.1903076171875,31.4656200408936,31.3603343963623,-37.0408935546875,-0.442266404628754,-0.442266404628754,1.4844024181366,77.94140625
0,1,14.582007,3023217248,6077922,3239,193598,1472,0,2049.64819335938,107.662963867188,-5.01535654067993,-33.4899444580078,40.9986267089844,-0.0623082555830479,-0.0623082555830479,-1.61146247386932,77.8671875
0,1,14.594002,3023259109,6079225,3063,193629,1506,0,2050.39038085938,106.222534179688,-3.51266384124756,-1.13419783115387,-10.2125663757324,-0.01588249579072,-0.01588249579072,-0.974940896034241,77.80859375
0,1,14.63901,3023300391,6080475,2985,193659,1463,0,2048.8671875,91.265869140625,15.3858499526978,23.3874473571777,12.739387512207,0.0696386322379112,0.0696386322379112,-0.857654809951782,77.890625
0,1,14.687033,3023340784,6081659,2913,193689,1470,0,2049.8046875,83.624267578125,11.4568347930908,39.4337196350098,30.1208515167236,0.0146607654169202,0.0146607654169202,-0.990823447704315,77.84375
0,1,14.718034,3023382404,6082897,2972,193720,1483,0,2049.84375,83.367919921875,-12.0502557754517,-4.71386051177979,11.6674032211304,-0.140499010682106,-0.140499010682106,-1.13254415988922,77.859375
0,1,14.785048,3023423726,6084158,3023,193751,1518,0,2049.41381835938,83.3892822265625,24.8997135162354,-5.80977344512939,43.4393043518066,0.123394772410393,0.123394772410393,-1.25838232040405,77.91796875
0,1,14.800046,3023465075,6085458,3104,193784,1560,0,2049.5703125,84.197998046875,41.5154724121094,10.8442726135254,14.4430780410767,0.394618928432465,0.394618928432465,-0.597426235675812,77.94921875
0,1,14.846057,3023507581,6086821,3223,193817,1559,0,2049.2578125,86.9140625,22.5403881072998,-35.2654228210449,-12.4187488555908,0.992045164108276,0.992045164108276,-2.09893274307251,77.95703125
0,1,14.887077,3023549102,6088160,3270,193851,1580,0,2049.453125,86.602783203125,-32.0733947753906,-16.0223407745361,-39.5533599853516,0.836885392665863,0.836885392665863,3.56623125076294,77.94140625
0,1,14.92609,3023589653,6089470,3249,193883,1616,0,2049.375,83.709716796875,-83.3659362792969,2.18704009056091,12.3661079406738,0.116064392030239,0.116064392030239,-0.951728045940399,77.91015625
0,1,14.97409,3023630872,6090792,3219,193916,1603,0,2049.64819335938,83.3740234375,50.4646301269531,-13.146167755127,54.2165794372559,-0.48136180639267,-0.48136180639267,4.69877529144287,77.890625
0,1,15.006093,3023671194,6092099,3221,193948,1665,0,2049.84375,83.1878662109375,39.3810729980469,-25.5027027130127,24.8853549957275,0.510683357715607,0.510683357715607,4.2027530670166,77.82421875
0,1,15.067114,3023713379,6093471,3251,193983,1635,0,2049.92163085938,83.642578125,19.1282253265381,-13.2801656723022,13.9262275695801,1.17774820327759,1.17774820327759,0.785572707653046,77.8515625
0,1,15.089124,3023754122,6094808,3273,194016,1594,0,2049.84375,83.551025390625,13.7635164260864,37.4859619140625,-26.048267364502,-2.69025039672852,-2.69025039672852,-0.205250710248947,77.8515625
0,1,15.138124,3023795434,6096153,3252,194049,1631,0,2049.765625,90.39306640625,-84.4379272460938,7.79581642150879,-0.492921471595764,0.232128784060478,0.232128784060478,3.37808465957642,77.94140625
0,1,15.174132,3023838767,6097566,3208,194085,1638,0,2049.9609375,98.71826171875,23.770299911499,-3.08674120903015,-7.38903617858887,-0.186924755573273,-0.186924755573273,-0.872315526008606,77.80078125
0,1,15.222142,3023881332,6098895,3094,194118,1561,0,2049.5703125,106.399536132813,-111.955390930176,-13.505090713501,-1.7324036359787,0.255341678857803,0.255341678857803,-1.69820535182953,77.83203125
0,1,15.271155,3023925808,6100225,2978,194153,1546,0,2049.6875,111.4013671875,-8.17866802215576,20.4299201965332,28.2735919952393,0.992045164108276,0.992045164108276,1.12277030944824,77.7265625
0,1,15.30676,3023966418,6101372,2906,194185,1563,0,2050.078125,113.958740234375,-0.133998081088066,12.4570350646973,19.9752826690674,0.234572246670723,0.234572246670723,-1.6823228597641,77.75390625
0,1,15.358772,3024007764,6102547,2850,194216,1542,0,2052.890625,109.890747070313,2.82831621170044,15.6921310424805,4.09651231765747,-0.977384388446808,-0.977384388446808,-0.471587955951691,77.75390625
0,1,15.388784,3024049903,6103724,2799,194248,1516,0,2052.9296875,102.005004882813,47.2582473754883,-12.4043922424316,-5.2402811050415,-0.171042263507843,-0.171042263507843,0.690277695655823,77.8203125
0,1,15.427788,3024091570,6104842,2736,194280,1485,0,2053.1640625,102.142333984375,-23.5453758239746,-11.3228368759155,-6.92004299163818,0.178372651338577,0.178372651338577,0.289550095796585,77.71484375
0,1,15.475801,3024131669,6105921,2669,194309,1479,0,2052.5390625,102.471923828125,-16.0845527648926,8.88215827941895,-7.29810953140259,-0.155159771442413,-0.155159771442413,0.156381502747536,77.8046875
0,1,15.507804,3024173282,6107018,2600,194340,1466,0,2052.890625,98.1658935546875,16.1611251831055,-17.8456726074219,0.961914658546448,-0.581543684005737,-0.581543684005737,1.13132238388062,77.6953125
0,1,15.548815,3024213889,6108066,2577,194369,1441,0,2053.08569335938,94.3359375,-21.262622833252,10.0977115631104,2.48375010490417,0.309097796678543,0.309097796678543,-1.18752193450928,77.73828125
0,1,15.591823,3024254730,6109167,2702,194399,1458,0,2053.28125,93.194580078125,28.5798721313477,19.3818626403809,12.0167560577393,-0.938288986682892,-0.938288986682892,-1.34390354156494,77.69140625
0,1,15.642836,3024296876,6110334,2778,194431,1516,0,2052.6953125,97.2137451171875,-21.8225421905518,11.2462663650513,25.4452781677246,-0.233350530266762,-0.233350530266762,0.368962615728378,77.69140625
0,1,15.675843,3024338553,6111512,2821,194463,1553,0,2052.7734375,91.094970703125,8.60458946228027,-3.2207396030426,11.9497566223145,-1.16308736801147,-1.16308736801147,0.690277695655823,77.76171875
0,1,15.724856,3024379547,6112689,2871,194495,1568,0,2053.0078125,83.1298828125,-15.6059894561768,-5.02014207839966,12.1459684371948,-0.0708603635430336,-0.0708603635430336,0.156381502747536,77.67578125
0,1,15.755861,3024420595,6113884,2878,194528,1587,0,2053.2421875,83.67919921875,40.3142776489258,12.7681016921997,-26.1487674713135,-0.0549778714776039,-0.0549778714776039,0.0146607654169202,77.609375
0,1,15.794874,3024460869,6115082,2959,194559,1583,0,2052.5,83.5662841796875,21.0759830474854,16.1180534362793,-9.13579654693604,-1.06290555000305,-1.06290555000305,1.17041790485382,77.68359375
0,1,15.844884,3024503788,6116378,3028,194594,1588,0,2053.28125,83.5662841796875,-1.08155596256256,22.7366008758545,-0.0430708080530167,0.0232128798961639,0.0232128798961639,-0.927293419837952,77.625
0,1,15.881889,3024547446,6117723,3062,194630,1675,0,2052.4609375,83.59375,8.58544731140137,39.1657218933105,17.0464687347412,-0.566882908344269,-0.566882908344269,3.62487435340881,77.6953125
0,1,15.926899,3024589052,6119029,3085,194665,1691,0,2053.046875,83.77685546875,11.0548410415649,-33.8536567687988,1.5361921787262,-0.636521518230438,-0.636521518230438,0.799011707305908,77.68359375
0,1,15.974911,3024635736,6120536,3300,194706,1791,0,2052.734375,88.2415771484375,-31.795825958252,-9.62871837615967,54.4415054321289,0.95294976234436,0.95294976234436,2.53753423690796,77.703125
0,1,16.029924,3024677123,6121881,3292,194741,1741,0,2054.1796875,103.903198242188,13.4524488449097,26.847469329834,50.2397041320801,0.178372651338577,0.178372651338577,4.2027530670166,77.703125
0,1,16.059932,3024720791,6123266,3062,194779,1721,0,2052.65625,113.885498046875,-15.9936265945435,2.83788776397705,-7.03489828109741,0.735481739044189,0.735481739044189,-2.64871168136597,77.703125
0,1,16.09694,3024762227,6124523,2916,194814,1664,0,2052.6171875,114.810180664063,-37.9358100891113,-11.6147603988647,-12.4283208847046,0.720820963382721,0.720820963382721,-0.244346097111702,77.71875
0,1,16.169955,3024809307,6125904,2810,194854,1640,0,2052.7734375,104.953002929688,0.636490821838379,18.381664276123,2.27796721458435,0.100181899964809,0.100181899964809,-1.05313169956207,77.7109375
0,1,16.184962,3024850186,6127079,2715,194887,1639,0,2052.9296875,105.386352539063,-56.8391075134277,25.3974170684814,7.41296434402466,-0.03176499158144,-0.03176499158144,-0.998153805732727,77.72265625
0,1,16.232972,3024895292,6128348,2750,194925,1660,0,2052.85131835938,106.8115234375,-7.34117984771729,5.47956418991089,10.7533445358276,0.355523556470871,0.355523556470871,-0.48747044801712,77.66015625
0,1,16.288982,3024937101,6129511,2700,194958,1568,0,2052.890625,108.065795898438,9.39422130584717,25.6367034912109,7.72881698608398,-0.342084527015686,-0.342084527015686,4.01949310302734,77.64453125
0,1,16.338993,3024984234,6130793,2656,194996,1584,0,2052.734375,109.188842773438,20.2241382598877,6.81475877761841,16.7832584381104,0.62796950340271,0.62796950340271,1.8777996301651,77.73046875
0,1,16.422015,3025025664,6131913,2558,195028,1512,0,2049.7265625,92.816162109375,28.7377986907959,10.3896360397339,-6.23569583892822,0.162490159273148,0.162490159273148,0.0781907513737679,77.77734375
0,1,16.460023,3025069388,6133083,2532,195062,1539,0,2049.53125,84.09423828125,72.2106018066406,14.7397880554199,-12.4043922424316,-0.474031418561935,-0.474031418561935,1.39032924175262,77.73046875
0,1,16.47803,3025111207,6134220,2598,195094,1529,0,2049.140625,82.7850341796875,-37.2562484741211,-38.7733001708984,21.9373970031738,0.813672482967377,0.813672482967377,1.37078166007996,77.76171875
0,1,16.498029,3025158481,6135551,2730,195132,1608,0,2049.7265625,83.1451416015625,-9.23151016235352,-32.8008117675781,10.3417797088623,1.58824968338013,1.58824968338013,1.08734011650085,80.12109375
0,1,16.540041,3025200378,6136790,2876,195167,1688,0,2049.17944335938,83.4716796875,-10.8777713775635,14.9455699920654,-22.9471683502197,0.844215750694275,0.844215750694275,2.32495307922363,77.69921875
0,1,16.581049,3025246267,6138163,2976,195205,1663,0,2049.2578125,82.757568359375,-23.167308807373,-0.0669990405440331,20.6692028045654,-0.0781907513737679,-0.0781907513737679,1.13865280151367,77.73828125
0,1,16.62706,3025287268,6139402,3013,195239,1644,0,2048.7890625,83.111572265625,50.952766418457,-6.66161870956421,46.7413940429688,-0.403171062469482,-0.403171062469482,-0.574213325977325,77.6875
0,1,16.673068,3025334310,6140856,3230,195278,1609,0,2048.984375,83.0078125,3.71366095542908,-33.5234451293945,15.1130676269531,-0.16371189057827,-0.16371189057827,-0.0794124826788902,79.6953125
0,1,16.711086,3025376024,6142130,3284,195313,1669,0,2049.9609375,83.2183837890625,-40.5918388366699,-21.7938289642334,61.1509780883789,0.542448282241821,0.542448282241821,-0.857654809951782,77.78125
0,1,16.756092,3025421210,6143508,3171,195351,1736,0,2049.296875,83.123779296875,19.9800682067871,-5.48913526535034,-15.6394891738892,-0.527787566184998,-0.527787566184998,1.94866001605988,77.796875
0,1,16.821103,3025463024,6144791,3084,195387,1772,0,2049.4921875,83.2122802734375,33.3655204772949,13.4189500808716,-2.95752882957458,-0.108734011650085,-0.108734011650085,3.87288546562195,77.69921875
0,1,16.845108,3025508072,6146188,3040,195426,1778,0,2049.1015625,82.879638671875,47.78466796875,-24.4307193756104,-39.8835678100586,-0.551000416278839,-0.551000416278839,0.92607170343399,77.79296875
0,1,16.887119,3025549462,6147491,3068,195462,1730,0,2049.5703125,83.04443359375,-17.5824604034424,-75.5557632446289,7.6809606552124,0.394618928432465,0.394618928432465,3.2058207988739,77.70703125
0,1,16.937131,3025597409,6149000,3145,195504,1749,0,2049.3359375,83.6273193359375,53.1876602172852,-34.164722442627,0.89012998342514,0.758694648742676,0.758694648742676,8.25034523010254,77.70703125
0,1,16.973143,3025637702,6150286,3182,195539,1715,0,2049.41381835938,83.837890625,-51.9529647827148,-8.62851810455322,-13.064811706543,1.39521622657776,1.39521622657776,-1.8545868396759,77.7421875
0,1,17.02015,3025684292,6151774,3282,195580,1741,0.9765625,2049.88256835938,83.6273193359375,-31.3411922454834,-2.93838596343994,38.1368103027344,-0.46547931432724,-0.46547931432724,-0.629191160202026,77.75390625
0,1,17.060161,3025725886,6153094,3258,195617,1766,0,2049.5703125,84.686279296875,-14.5483627319336,53.1972312927246,87.6108093261719,-0.419053554534912,-0.419053554534912,0.400727599859238,77.76953125
0,1,17.128172,3025772464,6154563,3026,195658,1782,0,2049.0234375,84.66796875,-28.0582389831543,8.15473937988281,48.7705116271973,-0.94684112071991,-0.94684112071991,0.415388375520706,77.7890625
0,1,17.16419,3025813169,6155873,3150,195695,1753,0,2049.2578125,84.43603515625,-32.738597869873,6.17826795578003,-20.1475658416748,1.18507862091064,1.18507862091064,2.51432132720947,77.7890625
0,1,17.213194,3025858208,6157326,3162,195735,1750,0,2049.375,84.4085693359375,-45.4349174499512,1.06241321563721,60.9547653198242,-0.0623082555830479,-0.0623082555830479,3.70062160491943,77.8046875
0,1,17.235197,3025900219,6158695,3241,195773,1784,0,2049.6875,85.8489990234375,16.7306156158447,12.8781719207764,-28.7856559753418,-0.16371189057827,-0.16371189057827,2.97735714912415,77.828125
0,1,17.281317,3025946715,6160210,3297,195815,1759,0,2049.2578125,92.9107666015625,-18.7118721008301,21.0664100646973,29.6997146606445,-0.01588249579072,-0.01588249579072,-0.0952949747443199,77.7734375
0,1,17.323326,3025988823,6161538,3075,195852,1739,0,2049.4921875,84.4573974609375,13.9597263336182,26.1296234130859,76.5846786499023,-0.233350530266762,-0.233350530266762,-0.361632227897644,77.8515625
0,1,17.36834,3026033554,6162898,2941,195890,1712,0,2052.65625,83.5723876953125,-7.82453012466431,11.2893371582031,-36.3469772338867,-0.140499010682106,-0.140499010682106,0.706160187721252,77.875
0,1,17.415362,3026074727,6164163,2976,195925,1723,0,2052.6953125,83.538818359375,-14.2133665084839,-9.04487037658691,2.61774802207947,-0.954171538352966,-0.954171538352966,0.475253134965897,77.92578125
0,1,17.459358,3026121295,6165594,3030,195964,1683,0,2052.6171875,83.3526611328125,-21.1573371887207,12.7441740036011,-8.58066177368164,-0.403171062469482,-0.403171062469482,1.42209422588348,77.99609375
0,1,17.528826,3026162966,6166876,3011,196000,1658,0,2053.08569335938,84.47265625,26.1679077148438,-31.2550487518311,21.4636192321777,0.651182293891907,0.651182293891907,1.20951318740845,77.79296875
0,1,17.602828,3026209258,6168318,3173,196038,1605,0,2052.57788085938,86.5234375,-24.5599308013916,-14.7302160263062,-42.3625297546387,0.510683357715607,0.510683357715607,-3.19849038124084,77.875
0,1,17.603837,3026249343,6169558,3245,196072,1637,0,2053.08569335938,84.0087890625,23.1194534301758,-8.88215827941895,6.91525793075562,0.758694648742676,0.758694648742676,0.918741345405579,77.8671875
0,1,17.630851,3026296058,6171005,3276,196111,1694,0,2052.96875,83.7493896484375,-9.3128662109375,42.750171661377,-24.0047969818115,1.09222710132599,1.09222710132599,-1.70553576946259,77.82421875
0,1,17.675845,3026337374,6172273,3181,196145,1725,0,2053.671875,83.734130859375,-13.8975133895874,36.8973236083984,51.6323280334473,0.309097796678543,0.309097796678543,0.895528435707092,77.92578125
0,1,17.727073,3026384350,6173718,2989,196185,1714,0,2052.9296875,83.648681640625,20.5687046051025,-32.264820098877,-40.7354125976563,0.153938040137291,0.153938040137291,-2.11481547355652,77.8359375
0,1,17.760069,3026425565,6174999,3052,196220,1709,0,2052.96875,84.625244140625,-31.4129753112793,-42.0323257446289,-27.9338130950928,1.22417390346527,1.22417390346527,-1.398881316185,77.9375
0,1,17.810078,3026469614,6176374,3108,196257,1669,0,2052.81225585938,87.6007080078125,-25.3495616912842,54.0873641967773,56.4945373535156,-0.372627794742584,-0.372627794742584,0.423940449953079,77.84765625
0,1,17.85009,3026510894,6177670,3130,196293,1737,0,2052.890625,94.219970703125,-0.971486032009125,-15.156138420105,13.4285202026367,1.13865280151367,1.13865280151367,1.11543989181519,77.94140625
0,1,17.895112,3026558159,6179121,3036,196334,1666,0,2052.890625,94.647216796875,-23.0907402038574,2.93838596343994,2.78524541854858,2.27852725982666,2.27852725982666,0.502131223678589,77.890625
0,1,17.937048,3026598882,6180319,2950,196368,1693,0,2052.96875,94.6502685546875,-14.8690013885498,-11.1361970901489,6.52283430099487,-0.124616511166096,-0.124616511166096,1.55526292324066,77.890625
0,1,17.985083,3026644355,6181631,2956,196406,1689,0,2053.046875,88.8641357421875,-6.95832824707031,-21.8225421905518,-26.794828414917,0.178372651338577,0.178372651338577,1.23272609710693,77.8984375
0,1,18.020161,3026685996,6182843,3014,196441,1685,0,2053.4765625,84.2529296875,-0.253639191389084,29.5513610839844,32.7003173828125,0.162490159273148,0.162490159273148,0,77.8828125
0,1,18.069171,3026733662,6184271,3068,196481,1703,0,2052.96875,87.066650390625,5.92462873458862,-59.1027221679688,3.82373070716858,-0.263893783092499,-0.263893783092499,-0.660956203937531,77.8671875
0,1,18.109179,3026774938,6185526,3024,196516,1708,0,2052.734375,93.5882568359375,97.8903732299805,5.99641370773315,27.2686080932617,-0.775798857212067,-0.775798857212067,1.42209422588348,77.83984375
0,1,18.183195,3026818808,6186856,2981,196553,1664,0,2052.6953125,99.6337890625,-24.2727928161621,-19.8843555450439,-1.99082839488983,-0.108734011650085,-0.108734011650085,-1.32802104949951,77.94140625
0,1,18.1952,3026860482,6188080,2834,196588,1693,0,2053.1640625,101.724243164063,-43.1665229797363,-19.6115741729736,-2.98145723342896,0.324980318546295,0.324980318546295,-1.77150917053223,77.9765625
0,1,18.251213,3026907893,6189423,2757,196627,1653,0,2052.85131835938,101.5869140625,-37.1557502746582,16.0749816894531,-17.5106754302979,0.0769690200686455,0.0769690200686455,2.68658518791199,77.8828125
0,1,18.29122,3026949634,6190593,2751,196662,1692,0,2052.7734375,102.670288085938,26.0099830627441,-20.7170581817627,-40.333423614502,-0.356745302677155,-0.356745302677155,-0.432492583990097,77.88671875
0,1,18.381235,3027026040,6192727,2753,196725,1645,0,2052.734375,106.106567382813,14.7397880554199,-31.7671127319336,11.8827571868896,-0.184481307864189,-0.184481307864189,-1.60413205623627,77.984375
0,1,18.405234,3027066649,6193857,2801,196759,1661,0,2049.0234375,106.979370117188,-11.112268447876,-35.7439842224121,52.4650268554688,0.153938040137291,0.153938040137291,1.4367550611496,78.08984375
0,1,18.442239,3027107974,6194974,2617,196792,1555,0,2049.4921875,108.090209960938,2.80438852310181,-15.4624195098877,4.18743944168091,-0.458148926496506,-0.458148926496506,-0.125838235020638,78.078125
0,1,18.496252,3027149563,6196116,2793,196826,1651,0,2050.0390625,110.263061523438,0.660419046878815,23.5310192108154,-14.3425788879395,0.379958152770996,0.379958152770996,0.966388821601868,78.00390625
0,1,18.529256,3027191577,6197240,2558,196860,1623,0,2049.7265625,110.891723632813,19.7312164306641,19.0037975311279,2.28275299072266,-0.877202451229095,-0.877202451229095,1.24127817153931,78.06640625
0,1,18.579268,3027233170,6198356,2767,196893,1525,0,2049.4921875,109.4482421875,-39.1561508178711,28.9914398193359,38.8163681030273,-0.0855211317539215,-0.0855211317539215,0.0232128798961639,78.06640625
0,1,18.607275,3027273264,6199429,2729,196925,1628,0,2049.7265625,102.96630859375,-8.59023380279541,24.6077899932861,-7.39382219314575,1.52716302871704,1.52716302871704,3.77881217002869,78.06640625
0,1,18.653288,3027315929,6200566,2689,196960,1622,0,2049.92163085938,102.029418945313,7.46082067489624,21.0616245269775,5.96291446685791,1.18507862091064,1.18507862091064,-2.9480357170105,78.0703125
0,1,18.703315,3027357869,6201634,2654,196992,1523,0,2049.453125,100.68359375,-16.8550434112549,12.3661079406738,15.6107740402222,-0.272445887327194,-0.272445887327194,2.25409269332886,78.01171875
0,1,18.735323,3027399002,6202711,2623,197025,1579,0,2049.8046875,87.6434326171875,-3.47437834739685,-2.30668115615845,19.4919338226318,-0.16371189057827,-0.16371189057827,-1.23394775390625,78.02734375
0,1,18.775339,3027440485,6203833,2708,197057,1549,0,2049.609375,84.1156005859375,35.2510681152344,-16.4243354797363,24.3110790252686,-0.0232128798961639,-0.0232128798961639,-0.244346097111702,78.03515625
0,1,18.847347,3027482855,6204954,2640,197090,1522,0,2049.765625,84.967041015625,-26.5411891937256,-38.2133750915527,-5.64706134796143,0.116064392030239,0.116064392030239,-0.251676470041275,77.97265625
0,1,18.861348,3027524365,6206092,2774,197123,1618,0,2049.7265625,84.130859375,-13.064811706543,-19.1042976379395,50.0004234313965,-1.01647973060608,-1.01647973060608,-2.23210167884827,77.98828125
0,1,18.902343,3027565833,6207255,2874,197156,1584,0,2049.41381835938,84.088134765625,36.3039054870605,2.09132695198059,20.8941268920898,0.665843069553375,0.665843069553375,1.79105687141418,78.0703125
0,1,18.956355,3027606813,6208444,2890,197190,1653,0,2049.765625,83.6578369140625,-38.8450813293457,-38.7541580200195,-4.99142837524414,0.735481739044189,0.735481739044189,0.92607170343399,78.08203125
0,1,18.986363,3027647275,6209647,2962,197224,1748,0,2049.6875,83.75244140625,25.4452781677246,-14.6201457977295,3.52223491668701,0.922406494617462,0.922406494617462,2.25409269332886,78.0234375
0,1,19.026178,3027689143,6210908,3030,197260,1663,0,2049.84375,86.04736328125,24.2440776824951,-55.5134887695313,-35.432918548584,-0.0232128798961639,-0.0232128798961639,-1.35978603363037,78.078125
0,1,19.090191,3027730593,6212179,3047,197295,1676,0,2049.92163085938,91.949462890625,39.2901496887207,55.9968376159668,2.58903384208679,0.185703039169312,0.185703039169312,6.59245729446411,78.01171875
0,1,19.109196,3027772450,6213438,3002,197330,1712,0,2049.375,100.78125,46.2293357849121,-0.717846870422363,-4.91964340209961,0.612086951732635,0.612086951732635,2.80509328842163,78.05859375
0,1,19.151204,3027813417,6214640,2876,197364,1619,0,2049.4921875,107.171630859375,9.97807121276855,13.064811706543,29.0871524810791,0.464257568120956,0.464257568120956,3.22048139572144,78.078125
0,1,19.208235,3027854364,6215780,2729,197396,1531,0,2048.4765625,107.421875,17.8169574737549,17.1708946228027,29.8193550109863,-0.0940732434391975,-0.0940732434391975,0.541226625442505,78.1015625
0,1,19.23124,3027895396,6216876,2584,197428,1564,0,2049.53125,103.45458984375,-9.61436176300049,-37.2083892822266,-3.50309228897095,0.348193168640137,0.348193168640137,-1.46974170207977,78.1328125
0,1,19.275246,3027936988,6217976,2597,197460,1542,0,2049.296875,97.4853515625,61.730037689209,-20.3102798461914,29.1637229919434,-0.318871647119522,-0.318871647119522,-0.597426235675812,78.05859375
0,1,19.349267,3027977896,6219068,2657,197492,1617,0,2049.4921875,89.83154296875,1.77068877220154,-50.3593482971191,15.2231378555298,-0.458148926496506,-0.458148926496506,0.525344133377075,78.0859375
0,1,19.357268,3028019471,6220202,2730,197526,1628,0,2053.3984375,84.4512939453125,9.94457149505615,14.1511535644531,-1.172483086586,0.00733038270846009,0.00733038270846009,2.40436553955078,78.0859375
0,1,19.40228,3028063719,6221449,2870,197562,1711,0,2053.359375,84.1766357421875,14.3186511993408,4.40757894515991,23.9760837554932,0.0610865242779255,0.0610865242779255,3.42573213577271,78.1171875
0,1,19.441367,3028104087,6222641,2980,197596,1716,0,2052.734375,83.8653564453125,5.96291446685791,-20.3485641479492,0.655633449554443,-0.0390953756868839,-0.0390953756868839,3.51980543136597,78.1015625
0,1,19.495382,3028146791,6223929,3002,197632,1651,0,2052.734375,83.8653564453125,9.67657566070557,-11.6386890411377,-6.60419034957886,-0.829554975032806,-0.829554975032806,-0.48747044801712,78.1953125
0,1,19.522395,3028188030,6225184,3022,197667,1757,0,2053.0078125,83.9508056640625,-86.8068237304688,-41.2570457458496,13.7922296524048,-0.48136180639267,-0.48136180639267,-2.65604209899902,78.0859375
0,1,19.564402,3028228705,6226434,3020,197701,1653,0,2052.81225585938,84.033203125,46.3776893615723,3.32602334022522,6.46062088012695,0.340862780809402,0.340862780809402,-0.196698606014252,78.1015625
0,1,19.604499,3028270286,6227703,2988,197737,1700,0,2052.890625,84.0789794921875,1.13898360729218,-5.9198431968689,21.0711975097656,0.262672066688538,0.262672066688538,1.29503428936005,78.2734375
0,1,19.655508,3028311039,6228966,3015,197772,1706,0,2052.3046875,83.9691162109375,-30.1112804412842,0.373280346393585,8.76730155944824,0.285884916782379,0.285884916782379,-1.01403629779816,78.1015625
0,1,19.716521,3028352229,6230228,2962,197808,1743,0,2053.08569335938,84.1644287109375,-64.0702209472656,2.00518536567688,-3.06759881973267,-1.26449108123779,-1.26449108123779,3.93641543388367,78.125
0,1,19.729525,3028394263,6231541,3107,197844,1736,0,2052.6171875,84.1644287109375,-27.0053958892822,-13.5194473266602,-5.03928470611572,0.355523556470871,0.355523556470871,-0.267558962106705,78.11328125
0,1,19.773828,3028435005,6232824,3176,197879,1664,0,2053.1640625,84.31396484375,95.3683471679688,10.8299150466919,-18.759729385376,-0.171042263507843,-0.171042263507843,-0.056199599057436,78.16015625
0,1,19.814547,3028479469,6234230,3296,197918,1697,0,2052.85131835938,84.246826171875,15.2087812423706,-9.60957527160645,23.5358047485352,-0.442266404628754,-0.442266404628754,-6.41286325454712,78.12890625
0,1,19.857551,3028520642,6235515,3278,197953,1702,0,2052.5390625,83.9813232421875,-98.9144973754883,-28.9052963256836,48.804012298584,0.262672066688538,0.262672066688538,-2.21621894836426,78.109375
0,1,19.911565,3028561618,6236778,3209,197988,1773,0,2052.890625,84.11865234375,68.0231628417969,21.9038982391357,5.03928470611572,-1.02381014823914,-1.02381014823914,0.722042739391327,78.15625
0,1,19.937574,3028602458,6238047,3178,198023,1709,0,2053.359375,84.46044921875,-6.84825849533081,34.1934356689453,26.4454765319824,-0.877202451229095,-0.877202451229095,-0.841772258281708,78.1484375
0,1,19.979581,3028644472,6239343,3093,198058,1747,0,2052.65625,83.7158203125,-72.6556625366211,-50.8187713623047,47.4640274047852,0.340862780809402,0.340862780809402,4.61936283111572,78.21484375
0,1,20.039598,3028686064,6240630,3057,198094,1760,0,2052.7734375,83.8470458984375,0.468993246555328,-1.36390888690948,13.8400859832764,-1.03969264030457,-1.03969264030457,4.4312162399292,78.140625
0,1,20.11261,3028727720,6241934,3014,198130,1752,0,2052.65625,83.9141845703125,-52.0821800231934,-54.695140838623,-22.9041004180908,0.364075690507889,0.364075690507889,-5.66638565063477,78.26171875
0,1,20.125908,3028770012,6243260,3027,198167,1763,0,2052.9296875,83.8287353515625,23.3348064422607,-18.1806659698486,-14.170295715332,-0.961501896381378,-0.961501896381378,1.61757111549377,78.1796875
0,1,20.145621,3028810988,6244546,3067,198203,1737,0,2052.5,83.837890625,33.1645240783691,6.69033193588257,-24.5503597259521,-0.597426235675812,-0.597426235675812,-0.386066824197769,78.265625
0,1,20.186628,3028852262,6245842,3073,198239,1728,0,2052.81225585938,83.7493896484375,15.1417808532715,0.64127641916275,32.9587364196777,0.178372651338577,0.178372651338577,0.439822971820831,78.17578125
0,1,20.232636,3028893932,6247167,3109,198275,1687,0,2052.81225585938,83.92333984375,20.5926303863525,16.7736873626709,20.4777774810791,1.1545352935791,1.1545352935791,-1.34390354156494,78.19921875
0,1,20.286651,3028935389,6248486,3162,198312,1719,0,2052.65625,84.3505859375,-14.3234367370605,9.37986469268799,-12.6867446899414,-0.62796950340271,-0.62796950340271,3.43306255340576,78.0859375
0,1,20.310662,3028976739,6249801,3240,198348,1793,0,2052.3046875,84.65576171875,-36.7058982849121,-24.5312194824219,-10.0977115631104,0.301767438650131,0.301767438650131,-0.409279704093933,78.16015625
0,1,20.355669,3029017042,6251080,3260,198383,1764,0,2049.453125,83.85009765625,-55.4369163513184,-25.3878498077393,31.6235446929932,-1.58947134017944,-1.58947134017944,-0.448375105857849,78.26171875
0,1,20.41068,3029059546,6252427,3241,198420,1736,0,2049.84375,83.843994140625,-15.5724906921387,9.69571685791016,34.9591407775879,-0.94684112071991,-0.94684112071991,2.62427711486816,78.22265625
0,1,20.437687,3029101074,6253737,3183,198457,1762,0,2049.92163085938,83.77685546875,62.1320343017578,1.00019991397858,23.9282264709473,-0.279776275157928,-0.279776275157928,-1.65910995006561,78.1640625
0,1,20.476694,3029142376,6255039,3108,198492,1736,0,2049.64819335938,83.612060546875,19.0899391174316,5.31206655502319,-6.77647352218628,-0.736703515052795,-0.736703515052795,-1.45385921001434,78.17578125
0,1,20.522705,3029183474,6256330,3064,198528,1769,0,2049.375,83.0963134765625,1.61754810810089,-11.3706932067871,-15.1226396560669,0.619417369365692,0.619417369365692,-2.00485968589783,78.1953125
0,1,20.564712,3029225397,6257642,3086,198564,1710,0,2049.6875,83.1787109375,-14.4000062942505,-26.3354053497314,-24.9236431121826,-0.287106662988663,-0.287106662988663,3.13496041297913,78.15625
0,1,20.613726,3029268795,6259003,3102,198602,1756,0,2052.3828125,83.1756591796875,-30.6185607910156,-25.8042011260986,-6.905686378479,0.224798396229744,0.224798396229744,2.70246767997742,78.234375
0,1,20.648731,3029310239,6260325,3146,198639,1761,0,2049.7265625,83.2763671875,-2.47896409034729,30.6377010345459,38.3713035583496,0.689055979251862,0.689055979251862,-3.24613785743713,78.16796875
0,1,20.701749,3029356546,6261820,3363,198681,1753,0,2049.21875,83.160400390625,-24.2488651275635,-61.6247520446777,2.51724934577942,0.713490605354309,0.713490605354309,3.77881217002869,78.2109375
0,1,20.731751,3029397378,6263144,3367,198717,1741,0,2049.7265625,83.184814453125,-17.0129680633545,12.600604057312,22.1001091003418,0.278554528951645,0.278554528951645,3.95962834358215,78.23828125
0,1,20.777883,3029442853,6264597,3186,198757,1731,0,2049.3359375,82.80029296875,-4.33100938796997,-8.46580696105957,38.0554504394531,-0.783129215240479,-0.783129215240479,2.19911479949951,78.21484375
0,1,20.820886,3029484711,6265935,3176,198795,1739,0,2049.53125,83.282470703125,38.0171661376953,0.516849756240845,48.5695114135742,1.11543989181519,1.11543989181519,-0.652404069900513,78.3125
0,1,20.869899,3029531686,6267426,3129,198835,1705,0,2049.17944335938,83.0657958984375,-18.4438762664795,28.3884468078613,21.1669101715088,-0.171042263507843,-0.171042263507843,0.847880899906158,78.23046875
0,1,20.931912,3029573534,6268765,3190,198873,1787,0,2049.53125,82.9559326171875,-8.13081169128418,-44.7553520202637,6.73340320587158,-0.131946891546249,-0.131946891546249,-0.684169054031372,78.22265625
0,1,20.953913,3029618235,6270222,3352,198914,1758,0,2049.4921875,83.7493896484375,-42.5874557495117,11.5381908416748,3.49830675125122,0.00733038270846009,0.00733038270846009,-4.36157751083374,78.22265625
0,1,21.005928,3029659170,6271546,3322,198950,1808,0,2049.609375,83.2489013671875,-5.69491815567017,23.5884456634521,27.72802734375,-0.395840674638748,-0.395840674638748,4.83194398880005,78.20703125
0,1,21.039938,3029705996,6273033,3109,198991,1755,0,2049.0625,83.154296875,18.2141666412354,-3.51744914054871,-19.0707969665527,-1.28770387172699,-1.28770387172699,-4.32981300354004,78.25390625
0,1,21.111158,3029747430,6274344,3100,199027,1780,0,2049.88256835938,82.7056884765625,67.1665344238281,-80.3605575561523,-51.469612121582,0.681725561618805,0.681725561618805,0.92607170343399,80.5859375
0,1,21.127956,3029793985,6275814,3142,199069,1813,0,2050.15600585938,82.72705078125,-5.51784896850586,47.2247467041016,42.2428894042969,0.0378736443817616,0.0378736443817616,-0.90408056974411,78.22265625
0,1,21.171963,3029836840,6277202,3262,199109,1869,0,2049.92163085938,82.9925537109375,66.9511795043945,16.1659088134766,7.66660356521606,0.0696386322379112,0.0696386322379112,-3.52835774421692,78.2109375
0,1,21.214983,3029880194,6278638,3381,199150,1878,0,2049.84375,83.2427978515625,-36.4474754333496,1.25862467288971,69.5497817993164,-0.101403623819351,-0.101403623819351,5.67249441146851,78.23828125
0,1,21.255983,3029921689,6280016,3363,199188,1871,0,2049.53125,83.0596923828125,-29.412576675415,44.4682197570801,35.576488494873,-0.690277695655823,-0.690277695655823,1.58702778816223,78.25390625
0,1,21.302996,3029968397,6281534,3181,199229,1782,0,2049.0234375,82.7239990234375,15.7926301956177,14.5675048828125,1.35912311077118,0.0928515195846558,0.0928515195846558,2.79654097557068,78.25390625
0,1,21.359007,3030009312,6282840,3132,199265,1750,0,2053.125,82.586669921875,-66.8315353393555,-46.7270393371582,12.7441740036011,0.62796950340271,0.62796950340271,-0.935845494270325,78.2265625
0,1,21.391288,3030053827,6284250,3127,199304,1802,0,2053.08569335938,82.7606201171875,-19.6020030975342,-13.3328075408936,27.5892467498779,-1.09344875812531,-1.09344875812531,2.59984254837036,78.16015625
0,1,21.456028,3030096551,6285636,3262,199343,1786,0,2053.359375,83.2061767578125,-12.0263261795044,-13.8544435501099,-6.80997323989868,-0.186924755573273,-0.186924755573273,0.408057987689972,78.1875
0,1,21.480033,3030142593,6287115,3155,199385,1910,0,2053.28125,83.0810546875,-1.64626204967499,-10.2987089157104,20.9706974029541,0.309097796678543,0.309097796678543,0.168598800897598,78.1796875
0,1,21.524042,3030185850,6288552,3330,199426,1924,0,2052.85131835938,82.9193115234375,103.743217468262,0.421136766672134,23.4161624908447,0.169820547103882,0.169820547103882,-0.173485726118088,78.22265625
0,1,21.567057,3030229292,6289992,3185,199467,1879,0,2052.34350585938,82.8033447265625,-13.7491588592529,-37.0696105957031,-6.53719186782837,0.96883225440979,0.96883225440979,2.75011515617371,78.2109375
0,1,21.619071,3030271257,6291399,3297,199506,1882,0,2052.65625,82.6995849609375,-43.2191619873047,25.3734893798828,40.6588401794434,0.55710905790329,0.55710905790329,0.536339640617371,78.23828125
0,1,21.662268,3030319204,6293019,3440,199551,1917,0,2052.5390625,82.647705078125,-3.4648072719574,22.4159622192383,20.9563407897949,-0.365297436714172,-0.365297436714172,-3.37808465957642,80.63671875
0,1,21.695084,3030360889,6294405,3345,199589,1872,0,2052.85131835938,82.3822021484375,15.6490602493286,6.69033193588257,20.7984161376953,0.480140089988708,0.480140089988708,2.62427711486816,78.1796875
0,1,21.745095,3030405803,6295875,3212,199630,1842,0,2053.08569335938,82.470703125,9.77707290649414,-31.4751873016357,26.1056957244873,0.379958152770996,0.379958152770996,-0.849102675914764,78.19921875
0,1,21.788103,3030447494,6297221,3190,199667,1795,0,2052.7734375,82.7972412109375,-80.9013290405273,-18.2189502716064,2.31146669387817,0.751364231109619,0.751364231109619,3.14229083061218,78.27734375
0,1,21.867123,3030494378,6298734,3184,199708,1785,0,2053.0078125,83.074951171875,21.7938289642334,3.95294308662415,-57.4995269775391,-0.535117924213409,-0.535117924213409,-1.40743350982666,78.26171875
0,1,21.871123,3030536336,6300093,3272,199745,1790,0,2052.81225585938,85.4400634765625,58.8347282409668,34.6720008850098,16.3525505065918,0.890641570091248,0.890641570091248,1.42942464351654,78.28515625
0,1,21.917135,3030582858,6301583,3202,199786,1781,0,2052.890625,108.743286132813,28.8095836639404,-36.8016128540039,-21.7220420837402,-1.08611845970154,-1.08611845970154,2.2467622756958,78.26953125
0,1,21.98015,3030622878,6302814,3017,199820,1669,0,2053.125,113.507080078125,12.3756790161133,7.71924543380737,23.8468704223633,-1.51250231266022,-1.51250231266022,1.10688781738281,78.28515625
0,1,22.057164,3030669705,6304166,2775,199857,1531,0,2052.1484375,111.276245117188,-2.43110799789429,-13.8735857009888,-14.61057472229,-0.923628211021423,-0.923628211021423,2.30174016952515,78.24609375
0,1,22.070168,3030711144,6305294,2581,199889,1498,0,2052.96875,106.393432617188,17.994026184082,12.3182516098022,-14.088939666748,-1.78372645378113,-1.78372645378113,-0.157603219151497,78.359375
0,1,22.092175,3030757457,6306497,2396,199923,1484,0,2052.57788085938,95.4193115234375,-10.4757785797119,-3.17288279533386,-11.5621194839478,-1.35001218318939,-1.35001218318939,-1.93399941921234,78.3125
0,1,22.137178,3030799343,6307593,2590,199954,1526,0,2052.65625,91.0858154296875,-21.9038982391357,3.12024068832397,75.019775390625,-1.51250231266022,-1.51250231266022,0.847880899906158,78.3125
0,1,22.179178,3030843208,6308737,2478,199988,1602,0,2052.6171875,92.816162109375,-17.032112121582,16.7928276062012,-0.660419046878815,-1.92300379276276,-1.92300379276276,1.44530713558197,78.19921875
0,1,22.219186,3030884493,6309852,2775,200020,1601,0,2052.81225585938,102.972412109375,-12.4426774978638,42.8745994567871,13.7778730392456,-0.667064845561981,-0.667064845561981,1.66521859169006,78.21484375
0,1,22.266196,3030931471,6311133,2696,200057,1574,0,2052.65625,109.710693359375,17.716459274292,-12.3182516098022,30.5324153900146,-1.96942961215973,-1.96942961215973,-0.48747044801712,78.22265625
0,1,22.307208,3030971541,6312208,2692,200089,1600,0,2053.0078125,111.676025390625,-25.5170631408691,22.0043964385986,7.77667331695557,-1.82282185554504,-1.82282185554504,-2.24065351486206,78.16796875
0,1,22.378937,3031017450,6313416,2646,200125,1520,0,2047.3046875,112.350463867188,-16.9746837615967,40.792839050293,36.3134765625,-1.21806526184082,-1.21806526184082,0.549778699874878,78.21875
0,1,22.393964,3031059820,6314500,2393,200157,1509,0,2050,101.788330078125,-46.023551940918,-3.81415939331055,0.392422914505005,-1.10200083255768,-1.10200083255768,-2.14535856246948,78.19921875
0,1,22.444955,3031106729,6315719,2704,200193,1544,6.8359375,2049.453125,84.4085693359375,-26.5411891937256,-30.1639213562012,1.61754810810089,0.852767884731293,0.852767884731293,-0.361632227897644,78.15625
0,1,22.50997,3031147060,6316762,2743,200224,1544,53.3203201293945,2049.765625,83.94775390625,68.8367156982422,-29.3838634490967,-43.0755958557129,-0.0232128798961639,-0.0232128798961639,1.46852004528046,78.1171875
0,1,22.572984,3031191522,6317983,2899,200259,1584,74.4140472412109,2049.453125,83.6700439453125,28.8143711090088,-11.9306135177612,3.58923387527466,1.60413205623627,1.60413205623627,1.31213855743408,78.1328125
0,1,22.59399,3031233581,6319189,2999,200293,1608,58.7890434265137,2049.41381835938,85.41259765625,-27.8428840637207,-12.0311126708984,-1.90468680858612,1.55770635604858,1.55770635604858,9.6638879776001,78.26953125
0,1,22.64601,3031280594,6320583,3135,200333,1841,144.765609741211,2049.453125,87.554931640625,76.8191833496094,1.90468680858612,46.7318229675293,0.309097796678543,0.309097796678543,2.59984254837036,78.21875
0,1,22.658008,3031322871,6321896,3230,200372,1841,175.78125,2049.41381835938,102.77099609375,-15.9266271591187,22.6696014404297,15.6155605316162,0.774577081203461,0.774577081203461,3.34631991386414,78.2265625
0,1,22.706013,3031368699,6323318,3026,200413,1720,288.7109375,2049.53125,114.187622070313,33.9972229003906,-36.6293296813965,4.9770712852478,2.37137889862061,2.37137889862061,-2.45201301574707,78.23828125
0,1,22.755026,3031409445,6324517,2891,200447,1682,285.195281982422,2049.4921875,114.88037109375,4.68993234634399,-16.2185516357422,-2.58903384208679,0.426383942365646,0.426383942365646,2.1135938167572,78.25
0,1,22.846061,3031480749,6326534,2783,200505,1617,337.1484375,2049.7265625,114.932250976563,-21.6933307647705,-9.59521865844727,34.3657188415527,-0.868650376796722,-0.868650376796722,-3.30844593048096,78.3203125
0,1,22.881055,3031546208,6328292,2625,200555,1415,488.9453125,2049.21875,115.151977539063,8.14038276672363,-24.813570022583,37.3854598999023,-0.604756593704224,-0.604756593704224,-1.18752193450928,78.390625
0,1,22.922069,3031587835,6329335,2427,200584,1443,465.546844482422,2049.609375,115.725708007813,-29.3742904663086,39.17529296875,-1.51704955101013,-1.35734248161316,-1.35734248161316,0.730594873428345,78.32421875
0,1,22.965076,3031630650,6330382,2405,200614,1315,271.0546875,2049.84375,116.378784179688,5.1110692024231,-3.50309228897095,4.29272365570068,0.379958152770996,0.379958152770996,-3.3402111530304,78.31640625
0,1,23.007786,3031673305,6331400,2386,200644,1495,117.421867370605,2048.94506835938,116.567993164063,-0.966700375080109,-4.4458646774292,39.6825714111328,-1.79105687141418,-1.79105687141418,-3.08853459358215,78.2890625
0,1,23.051788,3031717315,6332452,2391,200674,1406,153.085922241211,2049.375,107.26318359375,18.9224414825439,21.1094818115234,22.8131713867188,0.806342124938965,0.806342124938965,-2.04395508766174,78.3671875
0,1,23.094789,3031759101,6333440,2379,200703,1397,75.7031173706055,2049.6875,106.243896484375,24.7896423339844,26.8091850280762,3.50787806510925,0.0378736443817616,0.0378736443817616,1.55281949043274,78.3671875
0,1,23.147801,3031805501,6334546,2360,200735,1392,47.2265472412109,2048.984375,108.102416992188,1.36390888690948,28.3932323455811,12.7968158721924,-0.117286123335361,-0.117286123335361,-2.64749002456665,80.73046875
0,1,23.180809,3031845941,6335516,2407,200763,1384,26.9531307220459,2049.64819335938,109.26513671875,24.3589344024658,17.3766784667969,42.3290328979492,-0.814894199371338,-0.814894199371338,-2.0512855052948,78.37890625
0,1,23.240825,3031886276,6336489,2392,200792,1344,22.3046836853027,2049.6875,111.087036132813,-29.0392971038818,-8.63330364227295,0.105284191668034,1.62734496593475,1.62734496593475,-2.4678955078125,78.359375
0,1,23.300838,3031965246,6338374,2451,200845,1337,2.07030773162842,2048.984375,112.3291015625,8.67637538909912,-14.6632175445557,3.2973096370697,0.533896267414093,0.533896267414093,-3.89854192733765,78.55078125
0,1,23.354848,3032007005,6339351,2420,200873,1324,0,2052.85131835938,95.3857421875,24.1387958526611,-8.7242317199707,-0.660419046878815,-1.5357152223587,-1.5357152223587,-4.94312143325806,78.4453125
0,1,23.386859,3032052262,6340403,2322,200904,1366,0,2051.5625,83.1298828125,-41.3384056091309,9.32722282409668,25.8281288146973,0.441044718027115,0.441044718027115,-2.0512855052948,78.46484375
0,1,23.447872,3032092783,6341342,2139,200931,1254,0,2052.6171875,83.38623046875,-8.37009334564209,-10.2795667648315,28.0247383117676,-0.117286123335361,-0.117286123335361,-2.0512855052948,78.48828125
0,1,23.469878,3032135395,6342393,2236,200959,1340,0,2052.890625,83.3038330078125,25.3687057495117,-13.0025987625122,2.07218432426453,0.533896267414093,0.533896267414093,1.83870434761047,78.4609375
0,1,23.512885,3032177790,6343483,2596,200989,1519,0,2051.83569335938,83.6181640625,-13.3040933609009,1.30169558525085,9.10708332061768,0.185703039169312,0.185703039169312,-4.73054075241089,78.4453125
0,1,23.555894,3032219285,6344579,2780,201018,1403,0,2052.3046875,82.9559326171875,-5.93420028686523,-27.6658153533936,65.9940490722656,-0.0855211317539215,-0.0855211317539215,-2.10626339912415,78.47265625
0,1,23.611908,3032259954,6345683,2952,201048,1501,0,2052.6171875,82.9132080078125,-50.1248474121094,13.6055898666382,19.946569442749,0.0842994004487991,0.0842994004487991,-1.75318324565887,78.51171875
0,1,23.639913,3032300077,6346794,2909,201077,1427,0,2053.08569335938,82.9681396484375,6.37926578521729,-4.14915418624878,-36.3804779052734,0.364075690507889,0.364075690507889,-1.24616503715515,78.46875
0,1,23.680923,3032340533,6347937,2907,201107,1488,0,2053.125,82.9833984375,10.566704750061,-34.4949340820313,10.8442726135254,0.806342124938965,0.806342124938965,-2.68047666549683,78.5546875
0,1,23.721933,3032382181,6349129,2928,201138,1436,0,2053.32006835938,83.135986328125,-3.76151704788208,-2.85703039169312,22.0905380249023,0.50335294008255,0.50335294008255,1.39765965938568,78.48828125
0,1,23.75794,3032423047,6350304,2887,201167,1451,0,2052.5390625,83.026123046875,-60.4331283569336,-14.524432182312,6.37926578521729,-0.604756593704224,-0.604756593704224,0.00733038270846009,78.47265625
0,1,23.799949,3032464878,6351486,2849,201196,1327,0,2052.6171875,82.928466796875,-4.16351127624512,-44.678783416748,-45.0089950561523,0.167377069592476,0.167377069592476,-1.0690141916275,78.59375
0,1,23.842961,3032508280,6352710,2872,201227,1449,0,2052.734375,83.2489013671875,-8.54716205596924,-13.0456686019897,-3.87637257575989,-1.55159771442413,-1.55159771442413,-1.11666166782379,78.44921875
0,1,23.886384,3032548476,6353859,2853,201256,1325,0,2053.203125,83.3343505859375,-28.4841594696045,0.0191425811499357,-54.4462852478027,-0.814894199371338,-0.814894199371338,-0.0635299831628799,78.49609375
0,1,23.958401,3032589164,6355020,2810,201284,1406,0,2052.6953125,83.3343505859375,7.96331357955933,0.220139682292938,7.51824903488159,0.533896267414093,0.533896267414093,0.886976301670074,78.4140625
0,1,24.038423,3032630770,6356209,2828,201313,1353,0,2052.3828125,88.427734375,30.4606323242188,-31.2167663574219,30.6568431854248,-0.04764748737216,-0.04764748737216,0.690277695655823,78.3828125
0,1,24.056427,3032671867,6357393,2828,201343,1447,0,2052.34350585938,99.4842529296875,33.0735931396484,-2.14396929740906,17.2187519073486,-0.643851935863495,-0.643851935863495,-5.27298879623413,78.3984375
0,1,24.074426,3032713344,6358600,2845,201374,1437,0,2053.1640625,102.554321289063,42.5539588928223,11.2893371582031,2.31625247001648,0.0842994004487991,0.0842994004487991,2.26264476776123,78.4140625
0,1,24.09443,3032754914,6359763,2700,201403,1370,0,2052.85131835938,109.16748046875,-8.24566745758057,-2.35932302474976,8.92044353485107,1.12399208545685,1.12399208545685,-0.605978310108185,78.390625
0,1,24.13244,3032796379,6360857,2594,201431,1350,0,2052.5390625,111.1328125,-6.86740159988403,-4.88135862350464,52.0056076049805,0.899193584918976,0.899193584918976,-2.14535856246948,78.4765625
0,1,24.18245,3032837832,6361909,2508,201458,1249,2.46092677116394,2052.9296875,111.520385742188,-25.0767841339111,-12.9738845825195,25.0911388397217,0.123394772410393,0.123394772410393,-2.21621894836426,78.30859375
0,1,24.235464,3032877850,6362880,2410,201482,1235,2.49999761581421,2052.9296875,112.554931640625,39.6969261169434,-5.46042108535767,24.5216464996338,0.449596792459488,0.449596792459488,1.72752690315247,78.390625
0,1,24.255469,3032920459,6363882,2337,201508,1220,0,2052.4609375,108.97216796875,-9.0113697052002,22.7701015472412,21.8799705505371,-1.0311404466629,-1.0311404466629,-1.59557998180389,78.34375
0,1,24.297479,3032962686,6364849,2267,201532,1088,1.32811069488525,2053.08569335938,101.416015625,0.985842943191528,9.41814994812012,13.2993078231812,0.403171062469482,0.403171062469482,0.62796950340271,78.39453125
0,1,24.340487,3033003953,6365750,2109,201554,1004,0,2049.84375,84.3994140625,25.2682094573975,-24.2823657989502,23.9282264709473,0.0928515195846558,0.0928515195846558,-1.8545868396759,78.375
0,1,24.381497,3033045039,6366691,2316,201577,1119,5.70312118530273,2049.4921875,83.1878662109375,-19.3148651123047,7.70488882064819,34.3896484375,-0.14782939851284,-0.14782939851284,0.188146486878395,78.3125
0,1,24.438511,3033086952,6367680,2507,201603,1249,0,2049.5703125,83.1787109375,0.196211457252502,5.254638671875,24.8327121734619,0.0146607654169202,0.0146607654169202,-2.21621894836426,78.59375
0,1,24.466519,3033127696,6368701,2640,201628,1292,0,2049.453125,83.0810546875,-6.7621169090271,-4.17308282852173,8.78644561767578,0.271224141120911,0.271224141120911,-2.55463838577271,78.3203125
0,1,24.504523,3033169300,6369779,2664,201653,1274,0,2049.140625,82.958984375,-51.9673194885254,-1.77547442913055,30.1208515167236,0.0610865242779255,0.0610865242779255,-1.84725642204285,78.29296875
0,1,24.547533,3033210439,6370889,2782,201680,1355,0,2049.53125,83.038330078125,5.9198431968689,13.3088798522949,25.8568420410156,0.169820547103882,0.169820547103882,-4.59004163742065,78.3046875
0,1,24.591557,3033252133,6372069,2960,201710,1407,0,2049.92163085938,83.4716796875,-15.0460681915283,22.5212478637695,14.2037954330444,-1.22539567947388,-1.22539567947388,-0.825889766216278,78.1796875
0,1,24.633584,3033295635,6373311,2952,201739,1388,0,2049.4921875,83.404541015625,14.9024991989136,21.7890434265137,4.38843631744385,0.689055979251862,0.689055979251862,-1.15575706958771,78.25390625
0,1,24.688598,3033337015,6374511,2980,201769,1478,0,2049.4921875,83.3953857421875,-20.0327110290527,17.5154628753662,17.2091789245605,0.549778699874878,0.549778699874878,0.502131223678589,78.26171875
0,1,24.721607,3033378477,6375734,3052,201799,1444,0,2050.1953125,83.392333984375,23.1338081359863,9.71485996246338,-13.6773738861084,0.153938040137291,0.153938040137291,-1.39155101776123,78.2890625
0,1,24.753611,3033419430,6376948,3070,201830,1520,0,2049.6875,83.4564208984375,-3.86680150032043,22.2532501220703,15.7399873733521,0.976162672042847,0.976162672042847,4.54117250442505,78.1953125
0,1,24.823629,3033465282,6378334,3038,201864,1514,0,2049.6875,86.9476318359375,-53.3790855407715,-28.1348114013672,-1.74197494983673,-2.03173780441284,-2.03173780441284,3.26812887191772,78.22265625
0,1,24.845631,3033506386,6379556,3043,201894,1464,0,2049.375,93.572998046875,-1.82811641693115,15.3427791595459,-0.153140649199486,-0.201585531234741,-0.201585531234741,-2.91627049446106,78.09765625
0,1,24.887643,3033548017,6380795,2907,201924,1482,0,2049.6875,99.4232177734375,-20.4251327514648,-6.33140850067139,19.5541458129883,-0.224798396229744,-0.224798396229744,-3.23758578300476,78.25390625
0,1,24.931659,3033590247,6382008,2805,201954,1430,2.07030773162842,2049.609375,103.704833984375,-17.3001079559326,18.4534492492676,-48.2010231018066,-1.48928940296173,-1.48928940296173,-2.50699090957642,78.27734375
0,1,24.967659,3033631795,6383158,2670,201984,1418,0,2049.5703125,100.833129882813,23.7272281646729,26.7996139526367,-19.7695007324219,-1.07023584842682,-1.07023584842682,-0.605978310108185,78.21484375
0,1,25.008667,3033673319,6384259,2542,202011,1278,0,2049.453125,99.7344970703125,34.2460784912109,-12.5096769332886,27.1393947601318,0.116064392030239,0.116064392030239,-0.125838235020638,78.27734375
0,1,25.085688,3033716168,6385363,2617,202039,1318,0,2049.64819335938,96.9940185546875,-40.1419906616211,-16.5200481414795,30.7238426208496,-0.474031418561935,-0.474031418561935,0.863763451576233,78.23828125
0,1,25.109691,3033758103,6386454,2701,202067,1360,0,2049.609375,95.0836181640625,19.5015029907227,-5.03449869155884,-11.6099758148193,1.40254664421082,1.40254664421082,0.533896267414093,78.3359375
0,1,25.134697,3033799400,6387516,2577,202093,1239,0,2049.41381835938,92.3248291015625,-22.999813079834,-18.5395889282227,12.0933265686035,0.813672482967377,0.813672482967377,-1.17530465126038,78.31640625
0,1,25.175705,3033839738,6388519,2469,202119,1235,0,2049.84375,85.99853515625,38.4526596069336,-0.397208601236343,-7.9250283241272,0.0464257597923279,0.0464257597923279,1.59435832500458,78.1875
0,1,25.216714,3033881581,6389606,2559,202146,1297,0,2049.17944335938,82.6629638671875,-47.5693168640137,-28.7138710021973,18.5922317504883,0.0720821022987366,0.0720821022987366,2.51432132720947,78.42578125
0,1,25.257723,3033922976,6390705,2642,202172,1269,0,2049.9609375,82.7850341796875,27.8045997619629,14.088939666748,-7.47996377944946,0.224798396229744,0.224798396229744,3.16550374031067,78.34375
0,1,25.301737,3033964657,6391808,2461,202200,1301,0,2049.9609375,82.7880859375,-37.3663177490234,-2.12482643127441,14.3234367370605,0.280998021364212,0.280998021364212,0.659734427928925,78.16015625
0,1,25.356748,3034006326,6392965,2776,202229,1408,0,2053.2421875,83.4014892578125,5.7523455619812,-1.78025996685028,-19.5924320220947,-0.108734011650085,-0.108734011650085,-0.723264455795288,78.28515625
0,1,25.381752,3034046543,6394105,2736,202257,1422,0,2052.85131835938,83.4869384765625,-20.520845413208,-11.1649112701416,-13.9788703918457,-0.302989155054092,-0.302989155054092,4.60348033905029,78.29296875
0,1,25.426773,3034088426,6395336,2882,202289,1544,0,2052.890625,83.49609375,0.186640173196793,18.15673828125,-31.9537544250488,-0.145385921001434,-0.145385921001434,-2.95536589622498,78.296875
0,1,25.475775,3034129874,6396592,2928,202320,1494,0,2053.125,83.599853515625,-63.2614440917969,-12.7441740036011,7.39860725402832,0.704938471317291,0.704938471317291,1.29625594615936,78.29296875
0,1,25.509786,3034174099,6397904,2695,202354,1533,1.28906965255737,2053.75,83.80126953125,29.1206512451172,18.3338088989258,27.512674331665,1.12887895107269,1.12887895107269,-0.441044718027115,78.23828125
0,1,25.557791,3034215773,6399197,2998,202387,1592,7.14844465255737,2053.2421875,83.599853515625,7.70010328292847,-2.84745907783508,-0.837487936019897,1.7434093952179,1.7434093952179,-0.416610062122345,78.3046875
0,1,25.605804,3034259097,6400541,3152,202420,1434,0.0390708446502686,2051.953125,83.5662841796875,18.6975154876709,-2.61296248435974,-48.9140815734863,-0.194255143404007,-0.194255143404007,4.47031211853027,78.29296875
