command_auxdaq_sdwrite,flag_auxdaq_sdwrite,time_internal_seconds,time_auxdaq_us,position_engine_ticks,speed_engine_rpm,position_secondary_ticks,speed_secondary_rpm,pressure_frontbrake_psi,pressure_rearbrake_psi,lds_pedal_mm,imu_acceleration_x,imu_acceleration_y,imu_acceleration_z,imu_gyro_x,imu_gyro_y,imu_gyro_z,imu_temperature
0,1,0.367423,289101722,899928,1830,1150,0,309.140625,2047.92956542969,122.402954101563,0.0957129076123238,2.2396821975708,6.58026218414307,-0.03176499158144,-0.03176499158144,0.0232128798961639,72.4765625
0,1,0.407427,289143596,900664,1752,1150,0,308.9453125,2048.0078125,122.378540039063,1.03369951248169,-0.291924357414246,9.92542839050293,0,0,0.140499010682106,72.55078125
0,1,0.445437,289185140,901404,1720,1150,0,308.984344482422,2047.8125,122.366333007813,-8.48973560333252,1.57926309108734,5.31206655502319,0.130725160241127,0.130725160241127,-0.01588249579072,72.57421875
0,1,0.490446,289228936,902164,1791,1150,0,307.8515625,2047.8515625,122.381591796875,1.47397875785828,1.49790692329407,11.9688997268677,-0.0232128798961639,-0.0232128798961639,0,72.515625
0,1,0.532458,289269526,902846,1653,1150,0,309.101531982422,2047.96862792969,122.369384765625,4.79521656036377,-0.78484582901001,7.39860725402832,0.00733038270846009,0.00733038270846009,0.0146607654169202,72.65234375
0,1,0.57147,289311360,903555,1662,1150,0,307.734375,2047.73425292969,122.32666015625,-6.69511795043945,-0.837487936019897,10.9304141998291,0.0232128798961639,0.0232128798961639,0.0464257597923279,72.6953125
0,1,0.617479,289352158,904211,1595,1150,0,307.96875,2047.92956542969,122.35107421875,-1.74676048755646,1.01455676555634,7.53260564804077,0.0378736443817616,0.0378736443817616,0.0781907513737679,72.8046875
0,1,0.653488,289393590,904904,1618,1150,0,308.984344482422,2047.73425292969,122.320556640625,0.416351169347763,-2.25882434844971,12.3565359115601,-0.0390953756868839,-0.0390953756868839,-0.11117747426033,72.7265625
0,1,0.697495,289436413,905605,1730,1150,0,307.96875,2048.0078125,122.329711914063,-4.31665182113647,-1.83290219306946,-0.411565512418747,-0.0232128798961639,-0.0232128798961639,0.26511549949646,72.78515625
0,1,0.737504,289477443,906326,1697,1150,0,307.890594482422,2048.0078125,122.30224609375,1.32562363147736,-3.57966279983521,9.05444145202637,0.0146607654169202,0.0146607654169202,0.0623082555830479,72.6953125
0,1,0.793532,289518857,907055,1814,1150,0,307.890594482422,2047.8515625,122.283935546875,-5.20678234100342,3.12981200218201,8.49452018737793,0.0769690200686455,0.0769690200686455,-0.0794124826788902,72.84375
0,1,0.841535,289560504,907767,1686,1150,0,307.9296875,2048.0078125,122.293090820313,0.0526420958340168,0.607776999473572,9.07358264923096,0.0537561401724815,0.0537561401724815,-0.102625355124474,72.79296875
0,1,0.864534,289601434,908487,1702,1150,0,307.9296875,2047.890625,122.299194335938,1.31126689910889,-0.397208601236343,12.8542442321777,-0.00855211354792118,-0.00855211354792118,-0.04764748737216,72.80078125
0,1,0.903544,289642437,909183,1748,1150,0,309.0234375,2047.96862792969,122.286987304688,-3.1537401676178,-2.12482643127441,9.32243728637695,0,0,0.164933606982231,72.7890625
0,1,0.95856,289684983,909913,1670,1150,0,307.9296875,2047.8515625,122.296142578125,-2.81874513626099,-0.0813559740781784,9.90628623962402,0.100181899964809,0.100181899964809,0.156381502747536,72.78125
0,1,0.992562,289726635,910623,1745,1150,0,307.9296875,2047.8515625,122.296142578125,1.73718917369843,2.72781777381897,7.70967483520508,0,0,0,72.83203125
0,1,1.030572,289767427,911293,1617,1150,0,309.140625,2047.8125,122.296142578125,-1.72761797904968,2.03389930725098,8.81994438171387,-0.03176499158144,-0.03176499158144,0.288328409194946,72.9296875
0,1,1.071583,289809144,911988,1621,1150,0,307.890594482422,2047.73425292969,122.271728515625,-0.904487013816833,-0.89012998342514,7.95852851867676,0.0232128798961639,0.0232128798961639,-0.0708603635430336,73.6796875
0,1,1.122592,289851935,912665,1577,1150,0,307.8515625,2048.0859375,122.134399414063,-0.186640173196793,-0.698704242706299,7.63310384750366,0.0464257597923279,0.0464257597923279,0,72.9453125
0,1,1.162608,289894626,913413,1703,1150,0,307.8515625,2047.26550292969,122.039794921875,0.736989378929138,-0.622133910655975,10.4949197769165,0.153938040137291,0.153938040137291,-0.0867428630590439,72.9375
0,1,1.197608,289935792,914127,1833,1150,0,307.9296875,2047.92956542969,122.0458984375,-2.88574409484863,-1.76111745834351,8.69073104858398,-0.0549778714776039,-0.0549778714776039,0.00733038270846009,72.90234375
0,1,1.237621,289977095,914839,1686,1150,0,307.890594482422,2048.0859375,122.055053710938,5.32163763046265,-0.0622133873403072,11.6482610702515,0.0146607654169202,0.0146607654169202,0.0232128798961639,72.95703125
0,1,1.301633,290018904,915567,1720,1150,0,308.632781982422,2051.09375,122.213745117188,0.0191425811499357,0.68434727191925,9.99242782592773,-0.01588249579072,-0.01588249579072,0.117286123335361,72.97265625
0,1,1.321638,290061164,916270,1664,1150,0,308.515594482422,2050.546875,122.195434570313,-2.19661140441895,-0.459421932697296,11.9832553863525,0,0,0.0390953756868839,72.9765625
0,1,1.368662,290104995,917010,1626,1150,0,308.749969482422,2051.09375,122.128295898438,-5.45563554763794,1.41176533699036,10.8442726135254,0.130725160241127,0.130725160241127,0,73
0,1,1.411657,290146651,917700,1761,1150,0,306.249969482422,2050.9375,122.0458984375,-1.06241321563721,-0.177068874239922,9.41336441040039,0.0378736443817616,0.0378736443817616,-0.04764748737216,73.02734375
0,1,1.449666,290188698,918402,1636,1150,0,303.984344482422,2050.85913085938,122.006225585938,3.39780831336975,-0.588634371757507,11.1457672119141,-0.01588249579072,-0.01588249579072,0.0623082555830479,73.04296875
0,1,1.491674,290231473,919152,1810,1150,0,302.773406982422,2051.0546875,121.975708007813,2.68953275680542,-1.11505544185638,12.4474630355835,0.0232128798961639,0.0232128798961639,0.0855211317539215,73.09765625
0,1,1.549695,290275207,919911,1758,1150,0,299.218719482422,2050.9765625,121.951293945313,-6.18305397033691,-1.33519506454468,12.7872438430786,0.0146607654169202,0.0146607654169202,-0.134390354156494,73.08984375
0,1,1.654714,290316421,920646,1722,1150,0,296.875,2050.89819335938,121.923828125,-0.406779855489731,-0.464207619428635,8.99701309204102,-0.01588249579072,-0.01588249579072,-0.257785111665726,73.1484375
0,1,1.707725,290357936,921376,1848,1150,0,294.453094482422,2051.015625,121.914672851563,2.83788776397705,0.334995180368423,9.4325065612793,-0.0390953756868839,-0.0390953756868839,0,73.18359375
0,1,1.756744,290400498,922117,1708,1150,0,291.9921875,2050.7421875,121.920776367188,2.42153668403625,0.665204703807831,7.54696226119995,-0.0781907513737679,-0.0781907513737679,0.0549778714776039,73.20703125
0,1,1.776739,290440911,922827,1706,1150,0,292.070343017578,2052.1875,121.93603515625,4.75693130493164,-2.78045988082886,12.8829584121704,0,0,-0.01588249579072,73.421875
0,1,1.802745,290481909,923515,1693,1150,0,290.8984375,2051.171875,122.039794921875,1.10548412799835,-1.36390888690948,9.17408180236816,0.0610865242779255,0.0610865242779255,0.0305432621389627,73.2421875
0,1,1.849758,290523563,924222,1642,1150,0,292.070343017578,2050.7421875,122.256469726563,-4.85742998123169,2.51724934577942,8.60458946228027,-0.196698606014252,-0.196698606014252,-0.0635299831628799,73.21875
0,1,1.889767,290564786,924908,1748,1150,0,290.976531982422,2051.0546875,122.30224609375,-2.42153668403625,-1.04327070713043,10.1168537139893,0.0842994004487991,0.0842994004487991,-0.03176499158144,73.35546875
0,1,1.908772,290606598,925596,1616,1150,0,290.742156982422,2050.703125,122.445678710938,0.224925339221954,0.220139682292938,12.5862483978271,0.0146607654169202,0.0146607654169202,0.201585531234741,73.33203125
0,1,1.925773,290648152,926302,1749,1150,0,291.953094482422,2050.62475585938,122.610473632813,1.82333087921143,3.19681096076965,10.0115699768066,-0.0623082555830479,-0.0623082555830479,0.00733038270846009,73.37890625
0,1,1.960781,290689207,926984,1647,1150,0,290.937469482422,2051.2890625,122.811889648438,-3.06281304359436,1.71804666519165,12.5383920669556,0.0696386322379112,0.0696386322379112,0.0146607654169202,73.40625
0,1,1.990793,290730400,927728,1770,1150,0,292.070343017578,2051.25,122.894287109375,-3.10588383674622,-2.31625247001648,9.72921657562256,-0.101403623819351,-0.101403623819351,0.109955742955208,73.453125
0,1,2.031796,290771976,928465,1864,1150,0,292.031219482422,2051.2890625,122.698974609375,4.39800834655762,-2.88095855712891,2.31625247001648,0.0146607654169202,0.0146607654169202,0.0464257597923279,73.421875
0,1,2.075808,290812394,929185,1741,1150,0,290.976531982422,2051.0546875,122.265625,-1.96211457252502,-0.851844847202301,16.1467666625977,-0.0855211317539215,-0.0855211317539215,0.0390953756868839,73.47265625
0,1,2.114817,290854453,929937,1791,1150,0,292.109375,2051.09375,122.174072265625,-0.492921471595764,1.69411838054657,7.90588617324829,-0.0232128798961639,-0.0232128798961639,-0.00855211354792118,73.4140625
0,1,2.159826,290899348,930713,1739,1150,0,292.031219482422,2051.36694335938,122.393798828125,0.440279364585876,-0.832702338695526,8.37966537475586,0,0,0,73.453125
0,1,2.203837,290940646,931436,1697,1150,0,290.8203125,2051.0546875,122.760009765625,4.81435918807983,1.95254337787628,8.12602615356445,0.00733038270846009,0.00733038270846009,-0.03176499158144,73.43359375
0,1,2.260858,290987671,932244,1741,1150,0,292.148406982422,2051.2109375,122.866821289063,-0.808774054050446,1.59840548038483,10.8969144821167,0.280998021364212,0.280998021364212,0,73.4609375
0,1,2.299858,291027987,932907,1621,1150,0,291.3671875,2047.96862792969,122.650146484375,0.167497590184212,0.148355007171631,7.63789033889771,0.0146607654169202,0.0146607654169202,0.00733038270846009,73.44921875
0,1,2.331864,291071957,933639,1605,1150,0,290.078094482422,2047.421875,122.198486328125,1.25862467288971,-0.780060172080994,11.2366952896118,0.241902634501457,0.241902634501457,-0.00855211354792118,73.4921875
0,1,2.391889,291112773,934287,1590,1150,0,291.289031982422,2047.77331542969,122.27783203125,3.0436704158783,-1.25383913516998,6.96789979934692,0.0146607654169202,0.0146607654169202,-0.312763005495071,73.53515625
0,1,2.433594,291154303,935010,1687,1150,0,290.234375,2047.96862792969,122.311401367188,1.19641137123108,4.29272365570068,13.2658090591431,0.0232128798961639,0.0232128798961639,0,75.7578125
0,1,2.457599,291194783,935708,1858,1150,0,291.289031982422,2047.8125,122.311401367188,1.07198464870453,0.028713870793581,6.86740159988403,0.0146607654169202,0.0146607654169202,-0.03176499158144,73.51171875
0,1,2.497609,291236963,936451,1715,1150,0,290.117218017578,2047.890625,122.30224609375,2.97667145729065,0.464207619428635,11.8636140823364,0.0610865242779255,0.0610865242779255,0.156381502747536,75.32421875
0,1,2.537621,291278079,937187,1773,1150,0,291.328125,2047.65625,122.30224609375,-4.47457790374756,-0.708275496959686,12.5671043395996,0,0,0.0855211317539215,73.5859375
0,1,2.579628,291319514,937902,1734,1150,0,291.328125,2047.69519042969,122.494506835938,0.67956155538559,1.22512519359589,9.10229778289795,0.0232128798961639,0.0232128798961639,-0.0794124826788902,73.578125
0,1,2.629647,291360106,938615,1700,1150,0,291.25,2047.890625,122.732543945313,-4.39800834655762,-2.7948169708252,9.47079181671143,0.0696386322379112,0.0696386322379112,0.0464257597923279,73.6015625
0,1,2.66166,291401438,939327,1796,1150,0,291.289031982422,2047.49987792969,122.76611328125,1.32083809375763,-0.177068874239922,8.53280544281006,0.0232128798961639,0.0232128798961639,-0.125838235020638,73.671875
0,1,2.705661,291444322,940048,1650,1150,0,290.195281982422,2047.73425292969,122.821044921875,4.35972261428833,-0.306281298398972,6.91525793075562,0.0610865242779255,0.0610865242779255,0.133168622851372,73.6796875
0,1,2.747668,291486042,940758,1672,1150,0,290.078094482422,2047.578125,122.854614257813,-0.971486032009125,1.56969165802002,11.6626167297363,0.0146607654169202,0.0146607654169202,0.117286123335361,73.6484375
0,1,2.788684,291527964,941436,1612,1150,0,291.4453125,2048.94506835938,122.894287109375,1.15334057807922,-1.1198410987854,10.8729848861694,0.0464257597923279,0.0464257597923279,-0.102625355124474,73.7421875
0,1,2.829686,291569508,942133,1616,1150,0,291.4453125,2048.046875,122.909545898438,-0.502492785453796,-0.67956155538559,7.9154577255249,0,0,0.117286123335361,73.75
0,1,2.871858,291612157,942832,1735,1150,0,291.406219482422,2048.0859375,122.930908203125,1.82333087921143,-0.626919567584991,3.61794805526733,0.00733038270846009,0.00733038270846009,0.124616511166096,73.703125
0,1,2.915866,291654802,943557,1652,1150,0,290.195281982422,2048.046875,122.970581054688,0.311066955327988,-3.38345122337341,12.2656097412109,0.0305432621389627,0.0305432621389627,-0.134390354156494,73.81640625
0,1,2.973895,291699159,944337,1827,1150,0,291.25,2047.8515625,123.03466796875,5.01535654067993,0.674776017665863,10.4614210128784,-0.01588249579072,-0.01588249579072,-0.00855211354792118,73.890625
0,1,3.000886,291740667,945058,1740,1150,0,291.4453125,2048.0078125,123.141479492188,-1.19162571430206,0.976271688938141,6.92004299163818,0.0464257597923279,0.0464257597923279,0.0781907513737679,73.76171875
0,1,3.045895,291782485,945807,1726,1150,0,291.328125,2047.92956542969,123.159790039063,0.669990360736847,-0.516849756240845,7.1162543296814,0.0842994004487991,0.0842994004487991,-0.11117747426033,73.8125
0,1,3.08792,291824320,946540,1841,1150,0,291.406219482422,2048.1640625,123.208618164063,0.282353043556213,-1.82333087921143,11.030912399292,0.0378736443817616,0.0378736443817616,-0.0794124826788902,73.828125
0,1,3.129916,291870150,947334,1698,1150,0,291.25,2047.421875,123.193359375,-2.88095855712891,2.22532486915588,7.80538702011108,-0.312763005495071,-0.312763005495071,0.0696386322379112,73.99609375
0,1,3.185137,291911000,948048,1688,1150,0,293.671844482422,2047.6171875,123.211669921875,1.5074782371521,-1.27298164367676,12.8494577407837,0,0,-0.01588249579072,73.953125
0,1,3.211933,291952619,948745,1701,1150,0,297.421875,2047.8515625,123.233032226563,1.15334057807922,-1.96211457252502,11.4568347930908,0.0464257597923279,0.0464257597923279,-0.0708603635430336,73.85546875
0,1,3.253944,291994029,949441,1633,1150,0,302.031219482422,2047.578125,123.233032226563,-0.928415238857269,0.263210475444794,8.17866802215576,0.0146607654169202,0.0146607654169202,0.272445887327194,73.9296875
0,1,3.295952,292036441,950142,1716,1150,0,307.5,2051.0546875,123.403930664063,4.85742998123169,0.736989378929138,11.7966165542603,0.0232128798961639,0.0232128798961639,-0.056199599057436,73.9453125
0,1,3.339961,292078947,950823,1575,1150,0,314.492156982422,2051.328125,123.403930664063,5.69013214111328,0.602991282939911,7.62353324890137,-0.01588249579072,-0.01588249579072,-0.00855211354792118,73.91015625
0,1,3.384973,292120428,951525,1759,1150,0,319.21875,2051.0546875,123.403930664063,5.01057100296021,-0.421136766672134,14.5483627319336,-0.0855211317539215,-0.0855211317539215,-0.01588249579072,73.9765625
0,1,3.424981,292161752,952217,1668,1150,0,319.140625,2052.34350585938,123.391723632813,-5.31685209274292,-0.545563519001007,7.85324382781982,0.116064392030239,0.116064392030239,0.0390953756868839,73.9296875
0,1,3.485012,292202306,952950,1758,1150,0,319.21875,2050.9765625,123.40087890625,-5.43649244308472,2.74217462539673,3.73758888244629,-0.101403623819351,-0.101403623819351,0.0146607654169202,73.94921875
0,1,3.503023,292242600,953661,1855,1150,0,319.21875,2051.36694335938,123.403930664063,4.37886571884155,-1.89032995700836,4.85264444351196,0.0842994004487991,0.0842994004487991,-0.056199599057436,73.9609375
0,1,3.544028,292284373,954404,1738,1150,0,318.085906982422,2051.171875,123.410034179688,1.96690022945404,-0.325423896312714,12.9690990447998,0.00733038270846009,0.00733038270846009,0.101403623819351,73.984375
0,1,3.625043,292325421,955135,1774,1150,0,319.21875,2050.8203125,123.397827148438,2.28753852844238,4.03429889678955,6.9487566947937,0.0146607654169202,0.0146607654169202,-0.11117747426033,73.84375
0,1,3.755073,292367222,955848,1696,1150,0,317.9296875,2050.85913085938,123.394775390625,-3.52223491668701,0.416351169347763,10.5236349105835,0,0,0.0855211317539215,73.9765625
0,1,3.848096,292428536,956892,1640,1150,0,305.156219482422,2050.9375,123.388671875,-4.04387044906616,-0.0909272581338882,8.46102046966553,-0.04764748737216,-0.04764748737216,0.0940732434391975,74.015625
0,1,3.90411,292492464,957966,1639,1150,0,255.078140258789,2050.62475585938,123.385620117188,2.58424830436707,0.177068874239922,11.9018993377686,0.0146607654169202,0.0146607654169202,0.0146607654169202,74.12890625
0,1,3.946118,292534004,958670,1742,1150,0,233.476547241211,2050.9375,123.40087890625,6.59940528869629,2.54596328735352,9.86800003051758,0.00733038270846009,0.00733038270846009,-0.0244346093386412,74.18359375
0,1,3.991128,292577025,959381,1634,1150,0,207.3046875,2050.8203125,123.385620117188,-2.56032037734985,1.9286150932312,11.3850507736206,0.273667633533478,0.273667633533478,-0.00855211354792118,74.078125
0,1,4.00913,292618717,960117,1727,1150,0,184.84375,2050.8203125,123.370361328125,1.04327070713043,-1.14855492115021,11.3036947250366,-0.04764748737216,-0.04764748737216,0.0464257597923279,74.05859375
0,1,4.03149,292665848,960937,1820,1150,0,159.84375,2050.85913085938,123.382568359375,2.77088856697083,-1.06719887256622,9.86321449279785,-0.16371189057827,-0.16371189057827,-0.01588249579072,74.11328125
0,1,4.050144,292708407,961662,1667,1150,0,124.804672241211,2048.5546875,123.272705078125,2.35932302474976,2.26361036300659,8.23130989074707,-0.0390953756868839,-0.0390953756868839,-0.102625355124474,74.09375
0,1,4.068269,292753379,962433,1663,1150,0,96.7187271118164,2051.328125,123.361206054688,-2.69910407066345,0.904487013816833,12.1938247680664,-0.0855211317539215,-0.0855211317539215,-0.693942904472351,74.15234375
0,1,4.089255,292795102,963117,1660,1150,0,82.1875,2050.89819335938,123.35205078125,7.73360300064087,-4.56071949005127,6.84347295761108,-0.287106662988663,-0.287106662988663,0.636521518230438,75.48828125
0,1,4.102292,292842395,963912,1630,1150,0,71.4062423706055,2050.9375,123.35205078125,-0.478564500808716,-2.19182538986206,11.6386890411377,-0.0232128798961639,-0.0232128798961639,-0.401949316263199,74.125
0,1,4.144179,292884906,964632,1788,1150,0,55.0390472412109,2051.09375,123.32763671875,1.86640179157257,0.119641125202179,8.81515789031982,0.139277264475822,0.139277264475822,-1.30480813980103,75.06640625
0,1,4.190197,292927766,965351,1652,1150,0,34.4921951293945,2051.0546875,123.318481445313,-8.26480960845947,0.57906311750412,6.88175821304321,-0.249233022332191,-0.249233022332191,-0.954171538352966,74.1484375
0,1,4.244205,292969709,966100,1750,1150,0,14.4140424728394,2051.2109375,123.291015625,-2.38803720474243,-0.205782756209373,11.3946208953857,0.125838235020638,0.125838235020638,0.353080093860626,74.26171875
0,1,4.279974,293015784,966909,1843,1150,0,9.29686450958252,2048.0859375,123.101806640625,5.32163763046265,-1.97168588638306,11.5669040679932,-0.140499010682106,-0.140499010682106,-0.401949316263199,74.1484375
0,1,4.332952,293057471,967632,1695,1150,0,8.16404819488525,2047.69519042969,123.05908203125,-3.37388014793396,0.717846870422363,12.3996067047119,0.100181899964809,0.100181899964809,0.00733038270846009,74.265625
0,1,4.363968,293102988,968439,1756,1150,0,8.08593654632568,2048.0859375,123.043823242188,-5.93420028686523,-1.35433769226074,12.0358982086182,-0.03176499158144,-0.03176499158144,0.37629297375679,74.1875
0,1,4.448978,293144816,969166,1778,1150,0,9.25779342651367,2047.6171875,123.046875,-0.0669990405440331,-0.593420028686523,9.61436176300049,-0.318871647119522,-0.318871647119522,0.785572707653046,74.30859375
0,1,4.462985,293191862,969979,1680,1150,0,9.21875190734863,2046.95300292969,123.01025390625,-0.368494689464569,-0.555134892463684,13.6055898666382,0.0464257597923279,0.0464257597923279,1.16308736801147,74.23828125
0,1,4.494987,293234674,970713,1709,1150,0,9.33593559265137,2047.96862792969,123.068237304688,-1.43569374084473,1.48833572864532,5.96769952774048,0.294437050819397,0.294437050819397,-1.1789698600769,76.82421875
0,1,4.562003,293279384,971444,1628,1150,0,9.21875190734863,2047.22644042969,123.031616210938,1.14855492115021,-0.071784682571888,11.9832553863525,0.526565849781036,0.526565849781036,2.78188037872314,74.33984375
0,1,4.583008,293320024,972145,1671,1150,0,10.4687509536743,2047.6171875,123.043823242188,-3.68016123771667,1.89032995700836,8.29830837249756,-0.48136180639267,-0.48136180639267,0.541226625442505,74.38671875
0,1,4.630018,293366738,972937,1780,1150,0,9.25779342651367,2047.421875,123.040771484375,-1.51704955101013,1.18205440044403,10.1694965362549,-0.62796950340271,-0.62796950340271,1.42209422588348,74.39453125
0,1,4.672029,293408553,973634,1637,1150,0,8.00779438018799,2047.3046875,122.98583984375,-5.33120918273926,-0.454636335372925,8.19302463531494,0.0610865242779255,0.0610865242779255,1.02869701385498,74.3203125
0,1,4.715041,293455352,974451,1739,1150,0,9.25779342651367,2047.421875,122.982788085938,-3.01017093658447,0.607776999473572,8.20738220214844,-0.0940732434391975,-0.0940732434391975,0.39217546582222,74.35546875
0,1,4.758047,293497938,975184,1783,1150,0,14.0624942779541,2047.69519042969,123.007202148438,-4.48893547058105,-2.72303223609924,11.3754787445068,0.232128784060478,0.232128784060478,0.0549778714776039,74.45703125
0,1,4.805058,293543372,975969,1676,1150,0,40.1953163146973,2047.49987792969,123.004150390625,0.861416220664978,-2.28275299072266,12.5096769332886,0.0769690200686455,0.0769690200686455,-0.212581098079681,74.4453125
0,1,4.845074,293584797,976682,1735,1150,0,73.3984375,2047.77331542969,123.016357421875,-1.8185453414917,3.23031044006348,9.18843936920166,-0.372627794742584,-0.372627794742584,0.785572707653046,74.375
0,1,4.895078,293633280,977479,1648,1150,0,111.640602111816,2047.421875,123.046875,3.20638227462769,1.11026978492737,11.8971138000488,-0.201585531234741,-0.201585531234741,-0.0378736443817616,74.38671875
0,1,4.939089,293675062,978184,1625,1150,0,154.453125,2047.53894042969,123.074340820313,-1.93818628787994,-0.516849756240845,8.6428747177124,0.0842994004487991,0.0842994004487991,-0.01588249579072,74.44921875
0,1,4.981097,293718578,978906,1775,1150,0,188.8671875,2047.34375,123.077392578125,-1.68454706668854,-2.0386848449707,9.39900779724121,0.100181899964809,0.100181899964809,0.1795943826437,74.4765625
0,1,5.02211,293760084,979602,1640,1150,0,217.539047241211,2048.20288085938,123.123168945313,8.5040922164917,0.947557806968689,14.1559391021729,-0.0940732434391975,-0.0940732434391975,0.0781907513737679,74.44921875
0,1,5.07012,293807620,980436,1770,1150,0,248.359359741211,2047.8125,123.123168945313,0.665204703807831,-3.14416885375977,12.2321090698242,-0.0549778714776039,-0.0549778714776039,-0.267558962106705,74.4765625
0,1,5.133133,293848659,981149,1783,1150,0,267.539031982422,2048.1640625,123.126220703125,0.100498549640179,-2.3497519493103,3.62273359298706,0,0,0.101403623819351,74.50390625
0,1,5.160142,293894914,981963,1705,1150,0,292.421875,2047.69519042969,123.101806640625,5.44606447219849,-1.2299108505249,9.63350391387939,-0.03176499158144,-0.03176499158144,0.195476874709129,74.5
0,1,5.197146,293936567,982695,1790,1150,0,305.46875,2047.8515625,123.114013671875,0.00478564528748393,2.45025038719177,8.04467010498047,0.0232128798961639,0.0232128798961639,0.101403623819351,74.484375
0,1,5.263617,293983592,983498,1717,1150,0,311.40625,2047.578125,123.126220703125,4.88135862350464,-0.253639191389084,8.93480014801025,-0.0781907513737679,-0.0781907513737679,0.117286123335361,74.484375
0,1,5.338634,294025491,984223,1670,1150,0,317.968719482422,2050.9375,123.284912109375,-3.59401988983154,-0.368494689464569,10.1168537139893,0.0610865242779255,0.0610865242779255,0.00733038270846009,74.51171875
0,1,5.396011,294069889,984980,1788,1150,0,323.0078125,2051.13256835938,123.294067382813,-2.54596328735352,0.507278382778168,10.4709920883179,0.0146607654169202,0.0146607654169202,-0.0794124826788902,74.5078125
0,1,5.432352,294110886,985669,1655,1150,0,322.8125,2050.9375,123.309326171875,5.82891654968262,1.9238293170929,9.87757205963135,-0.0708603635430336,-0.0708603635430336,0.0781907513737679,74.5078125
0,1,5.448338,294157687,986468,1652,1150,0,321.71875,2051.09375,123.297119140625,-0.512064039707184,-1.4261223077774,11.0548410415649,-0.0855211317539215,-0.0855211317539215,-0.03176499158144,74.5390625
0,1,5.480361,294199158,987150,1680,1150,0,321.445281982422,2050.7421875,123.27880859375,-2.11046981811523,-3.80937361717224,14.1559391021729,0,0,0.0549778714776039,74.5234375
0,1,5.508352,294247288,987964,1643,1150,0,320.390655517578,2050.9765625,123.300170898438,2.64167618751526,0.138783723115921,10.8251285552979,0.0378736443817616,0.0378736443817616,-0.102625355124474,74.53125
0,1,5.550467,294290070,988704,1793,1150,0,320.4296875,2051.2890625,123.294067382813,4.17786884307861,3.41216492652893,7.48953533172607,0.0146607654169202,0.0146607654169202,0.0305432621389627,74.5234375
0,1,5.590476,294331146,989402,1689,1150,0,319.140625,2050.7421875,123.27880859375,-2.56032037734985,-1.7036896944046,13.3136653900146,0.0232128798961639,0.0232128798961639,0.0549778714776039,74.5
0,1,5.644487,294372001,990120,1691,1150,0,319.3359375,2051.171875,123.281860351563,-1.35912311077118,-1.54576349258423,8.61894702911377,-0.131946891546249,-0.131946891546249,0.298102229833603,74.58203125
0,1,5.673497,294413673,990828,1774,1150,0,318.046875,2051.2109375,123.287963867188,0.842273533344269,-1.97647154331207,4.83828783035278,0.0305432621389627,0.0305432621389627,0.0623082555830479,74.57421875
0,1,5.723507,294455473,991546,1677,1150,0,316.874969482422,2051.328125,123.284912109375,-0.459421932697296,-2.53639197349548,10.7485589981079,-0.0623082555830479,-0.0623082555830479,0.00733038270846009,74.5546875
0,1,5.767516,294496401,992248,1743,1150,0,315.7421875,2051.953125,123.275756835938,3.21595358848572,4.49850654602051,13.0743837356567,-0.01588249579072,-0.01588249579072,0.0464257597923279,74.5078125
0,1,5.799524,294537979,992932,1620,1150,0,316.8359375,2051.09375,123.291015625,0.287138730287552,0.59820568561554,7.61396169662476,0,0,0.0549778714776039,74.578125
0,1,5.843539,294579370,993626,1620,1150,0,316.8359375,2050.7421875,123.284912109375,0.373280346393585,1.23948204517365,13.1844530105591,-0.0390953756868839,-0.0390953756868839,0.101403623819351,74.5234375
0,1,5.884026,294619828,994272,1599,1150,0,316.914031982422,2050.8203125,123.281860351563,2.42153668403625,-1.10069835186005,7.51824903488159,0.00733038270846009,0.00733038270846009,-0.0952949747443199,74.55859375
0,1,5.924036,294661465,994999,1693,1150,0,316.7578125,2051.40625,123.281860351563,5.60399055480957,3.70887517929077,11.0739831924438,0.0842994004487991,0.0842994004487991,0.0390953756868839,74.55859375
0,1,5.963048,294703158,995714,1798,1150,0,315.6640625,2051.0546875,123.272705078125,0.330209523439407,-0.78484582901001,10.0498552322388,0.0610865242779255,0.0610865242779255,-0.0635299831628799,74.54296875
0,1,6.019056,294744526,996409,1642,1150,0,315.703094482422,2050.9765625,123.281860351563,1.4021942615509,-0.162711948156357,14.3712930679321,0,0,0.0549778714776039,74.59765625
0,1,6.07407,294785505,997113,1745,1150,0,315.78125,2051.2890625,123.294067382813,-0.287138730287552,3.23509621620178,11.7056894302368,0.304210871458054,0.304210871458054,-0.0244346093386412,74.5859375
0,1,6.086073,294826295,997791,1650,1150,0,315.7421875,2051.2109375,123.287963867188,-0.464207619428635,2.28753852844238,10.9160575866699,0.0464257597923279,0.0464257597923279,-0.04764748737216,74.55078125
0,1,6.13308,294869029,998527,1661,1150,0,315.7421875,2051.2109375,123.294067382813,-1.68454706668854,1.93818628787994,8.93480014801025,-0.312763005495071,-0.312763005495071,0.0623082555830479,74.6328125
0,1,6.198026,294910745,999228,1781,1150,0,316.992156982422,2051.36694335938,123.284912109375,3.73758888244629,-1.45962178707123,2.30189538002014,-0.0549778714776039,-0.0549778714776039,0.109955742955208,76.04296875
0,1,6.269042,294957523,1000048,1696,1150,0,315.703094482422,2051.25,123.272705078125,-6.71904611587524,2.20139670372009,8.99222755432129,0,0,0.00733038270846009,74.671875
0,1,6.308061,294998967,1000784,1762,1150,0,316.7578125,2050.62475585938,123.251342773438,2.88574409484863,0.0143569353967905,10.4039936065674,0.0305432621389627,0.0305432621389627,-0.03176499158144,74.6484375
0,1,6.418354,295042015,1001522,1732,1150,0,314.921844482422,2047.421875,123.092651367188,-1.95254337787628,-2.27796721458435,9.50907707214355,-0.01588249579072,-0.01588249579072,-0.1795943826437,74.72265625
0,1,6.457366,295082439,1002229,1693,1150,0,315,2047.96862792969,123.104858398438,-4.25922441482544,0.976271688938141,8.36530780792236,0.0769690200686455,0.0769690200686455,-0.0244346093386412,74.7265625
0,1,6.49237,295123886,1002941,1794,1150,0,314.8828125,2047.890625,123.098754882813,1.74676048755646,-0.215354055166245,10.8873434066772,0.0610865242779255,0.0610865242779255,0.0390953756868839,74.73828125
0,1,6.572395,295164810,1003630,1652,1150,0,313.632781982422,2047.34375,123.095703125,-3.13938331604004,0.875773072242737,11.6291179656982,-0.0549778714776039,-0.0549778714776039,-0.0635299831628799,74.63671875
0,1,6.661407,295206081,1004337,1714,1150,0,313.7109375,2047.421875,123.095703125,-2.64646196365356,0.421136766672134,8.67158889770508,-0.0390953756868839,-0.0390953756868839,-0.102625355124474,74.640625
0,1,6.721422,295246405,1005003,1640,1150,0,315.039031982422,2047.77331542969,123.110961914063,-1.03848505020142,-0.354137748479843,8.8773717880249,-0.01588249579072,-0.01588249579072,0.0305432621389627,74.7734375
0,1,6.770437,295288062,1005719,1663,1150,0,314.960906982422,2047.8125,123.114013671875,-1.81375956535339,-2.94795751571655,8.64766120910645,-0.0232128798961639,-0.0232128798961639,-0.0867428630590439,74.7421875
0,1,6.789442,295328474,1006395,1728,1150,0,314.960906982422,2047.77331542969,123.114013671875,0.215354055166245,-1.10548412799835,5.77148818969727,0.00733038270846009,0.00733038270846009,-0.040317103266716,74.7890625
0,1,6.82754,295370148,1007098,1644,1150,0,314.921844482422,2048.1640625,123.104858398438,0.646062076091766,-2.23489618301392,10.7916307449341,0.0928515195846558,0.0928515195846558,-0.03176499158144,74.84375
0,1,6.881549,295412515,1007809,1727,1150,0,314.8828125,2047.49987792969,123.098754882813,2.72781777381897,0.138783723115921,7.56610536575317,-0.0781907513737679,-0.0781907513737679,-0.03176499158144,74.7578125
0,1,6.898558,295455434,1008505,1595,1150,0,314.960906982422,2048.0078125,123.117065429688,-4.78564548492432,0.923629522323608,8.81994438171387,-0.04764748737216,-0.04764748737216,0.0464257597923279,74.765625
0,1,6.951563,295497164,1009194,1602,1150,0,314.843719482422,2047.6171875,123.104858398438,1.32083809375763,-0.813559710979462,9.12622547149658,-0.01588249579072,-0.01588249579072,0.0549778714776039,74.75390625
0,1,6.991575,295538488,1009841,1560,1150,0,314.843719482422,2047.890625,123.098754882813,-0.57906311750412,-2.12004113197327,15.8404865264893,-0.03176499158144,-0.03176499158144,0.117286123335361,74.84765625
0,1,7.025621,295580684,1010569,1677,1150,0,314.843719482422,2047.53894042969,123.086547851563,7.03968477249146,4.95314311981201,-2.09611248970032,0.0696386322379112,0.0696386322379112,0.0464257597923279,74.91796875
0,1,7.026579,295622543,1011287,1880,1150,0,314.921844482422,2047.92956542969,123.114013671875,2.77567434310913,3.12502646446228,7.63310384750366,0.00733038270846009,0.00733038270846009,-0.03176499158144,77.390625
0,1,7.04459,295663462,1012023,1740,1150,0,313.7109375,2047.65625,123.092651367188,-2.25882434844971,-0.569491803646088,13.6055898666382,-0.0781907513737679,-0.0781907513737679,-0.040317103266716,74.828125
0,1,7.065589,295705022,1012776,1803,1150,0,313.632781982422,2047.6171875,123.110961914063,-0.78484582901001,-0.330209523439407,11.0452690124512,0.0305432621389627,0.0305432621389627,-0.150272846221924,74.8359375
0,1,7.084595,295746179,1013495,1750,1150,0,313.671875,2047.73425292969,123.101806640625,1.80418825149536,0.244067922234535,9.10708332061768,-0.0232128798961639,-0.0232128798961639,0.0549778714776039,74.92578125
0,1,7.123604,295787108,1014245,1784,1150,0,313.632781982422,2047.6171875,123.095703125,-0.57906311750412,0.933200895786285,6.43190717697144,0.185703039169312,0.185703039169312,-0.0952949747443199,74.92578125
0,1,7.200603,295829188,1015005,1863,1150,0,313.671875,2047.578125,123.095703125,-0.263210475444794,6.33619451522827,9.47079181671143,0.0146607654169202,0.0146607654169202,-0.040317103266716,74.92578125
0,1,7.214608,295870880,1015738,1730,1150,0,313.671875,2047.53894042969,123.089599609375,-6.43669271469116,0.689132928848267,8.19781017303467,-0.01588249579072,-0.01588249579072,0.0390953756868839,74.96875
0,1,7.250958,295912229,1016475,1726,1150,0,314.921844482422,2048.046875,123.098754882813,-1.42133665084839,1.84725904464722,15.237494468689,-0.0232128798961639,-0.0232128798961639,-0.01588249579072,74.98828125
0,1,7.305971,295953181,1017179,1759,1150,0,313.749969482422,2047.8125,123.117065429688,-0.287138730287552,-0.306281298398972,9.64786052703857,0.0305432621389627,0.0305432621389627,-0.01588249579072,74.90625
0,1,7.332979,295995736,1017909,1672,1150,0,313.59375,2047.46081542969,123.089599609375,3.53180646896362,-3.75673174858093,9.64786052703857,0.0769690200686455,0.0769690200686455,0.133168622851372,74.9765625
0,1,7.342979,296038608,1018635,1720,1150,0,314.453125,2051.171875,123.275756835938,0.866201817989349,2.62253379821777,12.1651105880737,0.0378736443817616,0.0378736443817616,0.00733038270846009,74.9453125
0,1,7.364983,296080258,1019312,1601,1150,0,315.6640625,2050.9765625,123.263549804688,0.612562596797943,1.60797679424286,7.8484582901001,-0.0232128798961639,-0.0232128798961639,0.226020142436028,74.90625
0,1,7.382992,296121123,1020000,1658,1150,0,314.492156982422,2051.015625,123.27880859375,-2.75653171539307,-2.53160643577576,12.4235353469849,0.0378736443817616,0.0378736443817616,-0.03176499158144,74.8984375
0,1,7.424019,296162667,1020676,1632,1150,0,314.726531982422,2050.3515625,123.25439453125,-1.71326100826263,-0.78484582901001,6.83390140533447,0,0,0.0781907513737679,74.96875
0,1,7.464006,296202927,1021379,1691,1150,0,315.703094482422,2051.09375,123.287963867188,-2.29710984230042,2.24925327301025,-1.13419783115387,0.0928515195846558,0.0928515195846558,-0.04764748737216,74.99609375
0,1,7.508023,296243037,1022069,1834,1150,0,315.703094482422,2051.09375,123.2666015625,3.56530570983887,-1.50269246101379,5.18285417556763,0.0305432621389627,0.0305432621389627,0.0940732434391975,74.984375
0,1,7.564038,296284840,1022808,1719,1150,0,314.414031982422,2050.9375,123.260498046875,1.24905347824097,-0.933200895786285,16.007984161377,0,0,0.0623082555830479,74.984375
0,1,7.622282,296325382,1023528,1770,1150,0,314.531280517578,2051.171875,123.284912109375,-4.9770712852478,-0.636490821838379,9.90628623962402,0.0146607654169202,0.0146607654169202,0,74.9765625
0,1,7.64029,296366141,1024219,1683,1150,0,314.414031982422,2051.09375,123.25439453125,-3.42652201652527,-1.41655099391937,12.8781719207764,-0.03176499158144,-0.03176499158144,-0.0635299831628799,75
0,1,7.667293,296407857,1024938,1654,1150,0,315.6640625,2051.171875,123.263549804688,-5.55613422393799,-1.63669061660767,7.72881698608398,-0.0549778714776039,-0.0549778714776039,0.0232128798961639,75.015625
0,1,7.734529,296449427,1025630,1734,1150,0,314.492156982422,2051.015625,123.27880859375,0.0669990405440331,-1.99082839488983,4.98664236068726,-0.01588249579072,-0.01588249579072,0.0549778714776039,74.9921875
0,1,7.749533,296490294,1026309,1624,1150,0,314.492156982422,2051.328125,123.281860351563,2.50289249420166,0.368494689464569,11.0261268615723,0.0769690200686455,0.0769690200686455,0.101403623819351,75.0234375
0,1,7.79655,296531740,1027003,1763,1150,0,315.6640625,2051.171875,123.284912109375,0.617348253726959,0.751346230506897,9.38943576812744,-0.00855211354792118,-0.00855211354792118,-0.0244346093386412,75.03125
0,1,7.85456,296572616,1027679,1628,1150,0,315.6640625,2051.2890625,123.269653320313,5.9198431968689,3.98165678977966,9.94935607910156,0.0232128798961639,0.0232128798961639,-0.0635299831628799,75.03125
0,1,7.971536,296615001,1028426,1765,1150,0,313.437469482422,2051.796875,123.297119140625,-1.75154614448547,-3.32123780250549,11.9449710845947,-0.01588249579072,-0.01588249579072,-0.0635299831628799,75.0390625
0,1,8.07049,296657443,1029161,1785,1150,0,314.453125,2051.328125,123.27880859375,-0.459421932697296,-2.77567434310913,6.94397115707397,0.0378736443817616,0.0378736443817616,0.249233022332191,75.0625
0,1,8.103497,296698940,1029895,1716,1150,0,314.492156982422,2051.015625,123.269653320313,5.13978338241577,1.24426782131195,9.06401252746582,-0.0855211317539215,-0.0855211317539215,0.0146607654169202,75.0234375
0,1,8.122503,296741437,1030644,1821,1150,0,313.203094482422,2050.9375,123.2666015625,-0.5599205493927,4.04865598678589,9.90628623962402,0.00733038270846009,0.00733038270846009,-0.00855211354792118,75.0546875
0,1,8.16051,296783656,1031369,1696,1150,0,313.2421875,2050.3125,123.248291015625,-4.62771892547607,0.727418065071106,11.279767036438,0.0537561401724815,0.0537561401724815,0.0232128798961639,75.0390625
0,1,8.217522,296824593,1032088,1692,1150,0,314.3359375,2050.5078125,123.25439453125,-0.0191425811499357,-0.847059190273285,9.96849918365479,0.0537561401724815,0.0537561401724815,0.0464257597923279,75.09375
0,1,8.236527,296866182,1032790,1740,1150,0,313.28125,2051.5625,123.27880859375,-2.24446773529053,0.928415238857269,6.45583534240723,0.0769690200686455,0.0769690200686455,0.0549778714776039,75.0703125
0,1,8.25653,296906561,1033472,1645,1150,0,314.3359375,2050.7421875,123.251342773438,-4.78564548492432,-1.16291177272797,8.08295440673828,0.116064392030239,0.116064392030239,0.0464257597923279,75.109375
0,1,8.276537,296971442,1034572,1682,1150,0,315.546875,2050.546875,123.2421875,3.32123780250549,3.89072966575623,-2.80438852310181,0.0537561401724815,0.0537561401724815,0.0549778714776039,75.26953125
0,1,8.316544,297013071,1035280,1791,1150,0,313.749969482422,2047.69519042969,123.10791015625,3.23988175392151,-1.71326100826263,11.0979108810425,0.0305432621389627,0.0305432621389627,0.0232128798961639,75.2109375
0,1,8.379559,297053153,1035960,1659,1150,0,313.515594482422,2047.22644042969,123.05908203125,-2.56989169120789,1.08155596256256,11.2175540924072,-0.0708603635430336,-0.0708603635430336,-0.0244346093386412,75.234375
0,1,8.504273,297095848,1036701,1793,1150,0,313.59375,2047.1484375,123.08349609375,2.92881488800049,3.68973255157471,7.80060195922852,-0.0855211317539215,-0.0855211317539215,0.0781907513737679,75.171875
0,1,8.561285,297141087,1037471,1708,1150,0,315,2047.3046875,123.10791015625,-1.84247350692749,-0.0191425811499357,10.8012008666992,-0.01588249579072,-0.01588249579072,0.204028993844986,75.26171875
0,1,8.600598,297182891,1038220,1736,1150,0,313.554718017578,2047.18762207031,123.08349609375,-5.06799793243408,3.59880542755127,9.72921657562256,0.0537561401724815,0.0537561401724815,0.0305432621389627,75.2109375
0,1,8.619605,297230026,1039053,1808,1150,0,313.671875,2047.578125,123.092651367188,-1.97168588638306,3.41695070266724,11.854043006897,-0.01588249579072,-0.01588249579072,0.0146607654169202,75.24609375
0,1,8.655612,297272267,1039773,1682,1150,0,313.749969482422,2048.0859375,123.1201171875,0.626919567584991,-0.507278382778168,10.8538436889648,0.0378736443817616,0.0378736443817616,0.00733038270846009,75.296875
0,1,8.657621,297315861,1040533,1682,1150,0,313.554718017578,2047.421875,123.092651367188,-1.22512519359589,0.430708110332489,7.50389194488525,-0.04764748737216,-0.04764748737216,-0.102625355124474,75.2265625
0,1,8.674616,297357637,1041241,1774,1150,0,313.671875,2047.578125,123.092651367188,-0.0765703245997429,-2.85703039169312,5.25942420959473,0,0,-0.0244346093386412,77.69921875
0,1,8.69262,297404959,1042045,1655,1150,0,313.671875,2047.34375,123.086547851563,5.14456844329834,-0.626919567584991,9.2458667755127,0.0232128798961639,0.0232128798961639,0.0781907513737679,75.203125
0,1,8.712639,297446196,1042751,1691,1150,0,313.7109375,2047.69519042969,123.098754882813,4.8670015335083,2.1008985042572,10.5044918060303,0.0378736443817616,0.0378736443817616,0.101403623819351,75.3203125
0,1,8.751652,297491017,1043484,1644,1150,0,312.578155517578,2047.578125,123.08349609375,1.13898360729218,-1.7324036359787,9.68614673614502,0.0464257597923279,0.0464257597923279,0.0146607654169202,75.2421875
0,1,8.812663,297532606,1044178,1603,1150,0,312.656219482422,2047.77331542969,123.101806640625,-2.23011088371277,-2.15354061126709,7.21196794509888,-0.00855211354792118,-0.00855211354792118,-0.03176499158144,75.2734375
0,1,8.833667,297573915,1044848,1702,1150,0,312.6171875,2048.20288085938,123.117065429688,1.56012034416199,-0.631705224514008,6.14476871490479,0.0146607654169202,0.0146607654169202,0.00733038270846009,75.32421875
0,1,8.874682,297615222,1045513,1574,1150,0,312.6171875,2047.77331542969,123.095703125,-0.473778903484344,-0.832702338695526,9.80100154876709,0.00733038270846009,0.00733038270846009,-0.125838235020638,75.8984375
0,1,8.935692,297657484,1046215,1807,1150,0,312.5,2048.125,123.110961914063,4.81435918807983,1.19641137123108,10.8682012557983,-0.0390953756868839,-0.0390953756868839,0.101403623819351,75.38671875
0,1,8.962935,297699954,1046928,1648,1150,0,313.671875,2047.8125,123.104858398438,-1.94775760173798,0.521635353565216,7.92981433868408,0,0,-0.0635299831628799,75.3125
0,1,9.003713,297741343,1047677,1787,1150,0,313.828125,2048.125,123.10791015625,-4.52722072601318,-1.61754810810089,9.87278652191162,-0.101403623819351,-0.101403623819351,0.0549778714776039,75.23828125
0,1,9.042715,297782630,1048404,1834,1150,0,312.656219482422,2047.890625,123.110961914063,-1.37826585769653,-2.16311192512512,12.160325050354,0.00733038270846009,0.00733038270846009,-0.01588249579072,75.34765625
0,1,9.083818,297824242,1049149,1742,1150,0,312.578155517578,2048.0859375,123.117065429688,5.3982081413269,-0.607776999473572,9.39422130584717,0.00733038270846009,0.00733038270846009,0.0940732434391975,75.37109375
0,1,9.12583,297866157,1049902,1840,1150,0,312.578155517578,2047.8125,123.104858398438,-0.464207619428635,5.94377136230469,8.74337387084961,0.0842994004487991,0.0842994004487991,0.0305432621389627,75.33984375
0,1,9.17984,297907033,1050621,1743,1150,0,313.7890625,2048.28125,123.1201171875,1.48355007171631,0.162711948156357,11.3036947250366,0,0,-0.040317103266716,75.41796875
0,1,9.22485,297948454,1051362,1727,1150,0,313.7890625,2047.890625,123.126220703125,2.00039982795715,-0.957129001617432,0.76570326089859,-0.01588249579072,-0.01588249579072,0.0623082555830479,75.34765625
0,1,9.252858,297989803,1052080,1806,1150,0,312.578155517578,2048.1640625,123.129272460938,0.612562596797943,-1.96690022945404,6.94397115707397,0.0232128798961639,0.0232128798961639,0.0232128798961639,75.3671875
0,1,9.293863,298030336,1052769,1668,1150,0,312.109344482422,2051.09375,123.284912109375,4.33579444885254,-1.65104758739471,8.86780071258545,0.0610865242779255,0.0610865242779255,0.0146607654169202,75.44921875
0,1,9.331883,298072002,1053477,1704,1150,0,311.992156982422,2050.546875,123.263549804688,-0.133998081088066,0.229710966348648,8.40837860107422,-0.00855211354792118,-0.00855211354792118,0.0146607654169202,75.41796875
0,1,9.373885,298113461,1054149,1598,1150,0,312.226531982422,2051.2109375,123.300170898438,-4.92442941665649,0.282353043556213,8.36530780792236,0.0232128798961639,0.0232128798961639,0.0940732434391975,75.33203125
0,1,9.417891,298154890,1054838,1608,1150,0,313.671875,2051.171875,123.306274414063,-1.57447731494904,0.167497590184212,11.47119140625,-0.01588249579072,-0.01588249579072,0.0146607654169202,75.46875
0,1,9.473907,298198536,1055537,1633,1150,0,313.2421875,2050.78125,123.30322265625,3.57966279983521,-4.02951335906982,16.0031986236572,-0.01588249579072,-0.01588249579072,0.0464257597923279,75.44140625
0,1,9.499914,298238999,1056239,1676,1150,0,314.492156982422,2051.13256835938,123.3154296875,0.717846870422363,4.87178659439087,2.96231436729431,0.130725160241127,0.130725160241127,0.0549778714776039,75.48046875
0,1,9.544927,298280549,1056959,1881,1150,0,313.2421875,2050.703125,123.309326171875,-3.77108860015869,1.12941217422485,13.3280210494995,-0.00855211354792118,-0.00855211354792118,-0.173485726118088,75.46875
0,1,9.58193,298321515,1057682,1722,1150,0,313.359375,2051.171875,123.32763671875,1.70847535133362,1.04805624485016,9.67657566070557,0.0232128798961639,0.0232128798961639,-0.0708603635430336,75.52734375
0,1,9.62518,298362889,1058427,1767,1150,0,313.2421875,2050.703125,123.33984375,-0.406779855489731,-2.55074906349182,12.0981121063232,0.0305432621389627,0.0305432621389627,0.109955742955208,75.48046875
0,1,9.675952,298405422,1059166,1778,1150,0,314.453125,2051.36694335938,123.33984375,0.808774054050446,-0.435493737459183,9.13101196289063,0.0378736443817616,0.0378736443817616,0.0623082555830479,75.53125
0,1,9.709961,298447238,1059912,1737,1150,0,313.359375,2050.9765625,123.330688476563,1.39262270927429,-2.00039982795715,12.8207445144653,-0.0708603635430336,-0.0708603635430336,0.0696386322379112,75.515625
0,1,9.748975,298488731,1060644,1794,1150,0,313.28125,2051.4453125,123.33984375,2.46939301490784,3.48873567581177,9.9350004196167,-0.00855211354792118,-0.00855211354792118,-0.1795943826437,75.484375
0,1,9.792177,298530393,1061350,1672,1150,0,313.320281982422,2051.09375,123.330688476563,4.45064973831177,2.11046981811523,8.00159931182861,0.00733038270846009,0.00733038270846009,0.00733038270846009,76.08203125
0,1,9.831991,298571520,1062064,1680,1150,0,314.492156982422,2051.2890625,123.333740234375,2.76131725311279,-1.51704955101013,12.600604057312,-0.259006857872009,-0.259006857872009,0.00733038270846009,75.484375
0,1,9.873002,298612764,1062755,1712,1150,0,313.359375,2051.09375,123.330688476563,0.95234340429306,-1.31605231761932,9.83928680419922,0.100181899964809,0.100181899964809,-0.04764748737216,75.5078125
0,1,9.915009,298655196,1063477,1659,1150,0,314.492156982422,2050.9765625,123.336791992188,3.996013879776,0.358923435211182,9.82014465332031,0.0842994004487991,0.0842994004487991,-0.11117747426033,75.4921875
0,1,9.958022,298696840,1064180,1745,1150,0,314.5703125,2051.13256835938,123.32763671875,0.5599205493927,1.14376926422119,10.8442726135254,0.00733038270846009,0.00733038270846009,0.00733038270846009,75.59765625
0,1,10.013227,298737862,1064851,1611,1150,0,313.2421875,2051.015625,123.32763671875,1.07677030563354,2.24446773529053,7.06361293792725,-0.00855211354792118,-0.00855211354792118,0.0623082555830479,75.515625
0,1,10.041034,298779510,1065544,1640,1150,0,313.2421875,2050.85913085938,123.321533203125,-1.13898360729218,2.75653171539307,12.0454692840576,0,0,-0.040317103266716,75.5234375
0,1,10.083042,298821035,1066201,1570,1150,0,314.492156982422,2050.9765625,123.333740234375,-0.454636335372925,0.823131024837494,7.89631509780884,0.0464257597923279,0.0464257597923279,0.0855211317539215,75.5390625
0,1,10.127057,298863378,1066925,1666,1150,0,314.492156982422,2050.6640625,123.3154296875,3.25902438163757,1.30648124217987,8.78165912628174,-0.0781907513737679,-0.0781907513737679,-0.218689754605293,75.55078125
0,1,10.165067,298904491,1067615,1776,1150,0,314.453125,2051.015625,123.324584960938,6.2835521697998,-3.22552514076233,3.82851600646973,-0.0708603635430336,-0.0708603635430336,0.204028993844986,75.58203125
0,1,10.206076,298945724,1068349,1722,1150,0,313.437469482422,2050.89819335938,123.330688476563,-0.071784682571888,-2.94795751571655,10.8059873580933,0.0378736443817616,0.0378736443817616,-0.118507854640484,75.515625
0,1,10.250089,298990293,1069142,1783,1150,0,313.359375,2051.09375,123.330688476563,-4.37886571884155,0.028713870793581,7.59960508346558,-0.00855211354792118,-0.00855211354792118,0.0146607654169202,75.53125
0,1,10.29409,299032923,1069872,1712,1150,0,312.539031982422,2047.421875,123.159790039063,1.16291177272797,-1.16769742965698,8.6428747177124,-0.0549778714776039,-0.0549778714776039,0.0464257597923279,75.859375
0,1,10.339341,299076251,1070648,1738,1150,0,312.6953125,2048.0859375,123.171997070313,-4.7234320640564,1.74197494983673,4.48893547058105,0.139277264475822,0.139277264475822,-0.141720727086067,75.5703125
0,1,10.37911,299117723,1071378,1813,1150,0,312.578155517578,2047.77331542969,123.165893554688,-1.21076834201813,0.196211457252502,10.1838531494141,0.0378736443817616,0.0378736443817616,0.0940732434391975,75.5234375
0,1,10.433125,299159663,1072090,1668,1150,0,312.539031982422,2047.8125,123.150634765625,-1.19162571430206,1.54576349258423,10.2747802734375,0.0464257597923279,0.0464257597923279,-0.040317103266716,75.6171875
0,1,10.462136,299199711,1072778,1678,1150,0,312.5,2047.77331542969,123.162841796875,0.914058208465576,-2.57946300506592,8.86780071258545,0.0305432621389627,0.0305432621389627,-0.0708603635430336,75.5625
0,1,10.505123,299244558,1073512,1652,1150,0,311.2890625,2047.49987792969,123.147583007813,3.28773856163025,-3.99122834205627,6.7621169090271,0.0378736443817616,0.0378736443817616,0.0146607654169202,75.57421875
0,1,10.550133,299285201,1074189,1609,1150,0,312.578155517578,2047.69519042969,123.1689453125,1.41176533699036,-1.54576349258423,9.87757205963135,0.116064392030239,0.116064392030239,-0.03176499158144,75.5
0,1,10.589143,299326551,1074868,1760,1150,0,312.539031982422,2047.49987792969,123.14453125,-6.70947504043579,0.392422914505005,4.41715097427368,0.0378736443817616,0.0378736443817616,-0.040317103266716,75.5625
0,1,10.649269,299367855,1075566,1648,1150,0,311.249969482422,2047.65625,123.135375976563,7.75274515151978,-2.10568380355835,10.7964162826538,0,0,-0.0708603635430336,75.62109375
0,1,10.672276,299410087,1076311,1850,1150,0,311.2890625,2048.046875,123.129272460938,8.18345355987549,3.38823676109314,4.23051023483276,-0.01588249579072,-0.01588249579072,-0.03176499158144,75.5390625
0,1,10.712482,299452242,1077047,1741,1150,0,313.7109375,2048.0078125,123.123168945313,0.923629522323608,-0.392422914505005,9.58564758300781,0.0537561401724815,0.0537561401724815,-0.03176499158144,75.546875
0,1,10.754476,299493604,1077788,1724,1150,0,312.5,2047.8125,123.1201171875,4.18743944168091,1.75154614448547,1.16769742965698,0.0610865242779255,0.0610865242779255,-0.102625355124474,75.5703125
0,1,10.801483,299534529,1078501,1832,1150,0,312.578155517578,2047.77331542969,123.126220703125,-1.12941217422485,-3.57009124755859,12.9643135070801,-0.00855211354792118,-0.00855211354792118,0.101403623819351,75.5859375
0,1,10.836495,299576108,1079224,1701,1150,0,311.40625,2048.2421875,123.13232421875,2.07218432426453,1.15812623500824,8.16909599304199,-0.00855211354792118,-0.00855211354792118,0.0305432621389627,75.55078125
0,1,10.889513,299618153,1079964,1752,1150,0,311.367156982422,2048.125,123.129272460938,0.583848714828491,0.741775035858154,11.1218395233154,-0.03176499158144,-0.03176499158144,-0.04764748737216,75.66015625
0,1,10.919229,299659119,1080661,1698,1150,0,312.656219482422,2048.125,123.117065429688,-3.71366095542908,0.0622133873403072,12.5766754150391,-0.04764748737216,-0.04764748737216,0.0549778714776039,75.69140625
0,1,10.96024,299700207,1081379,1691,1150,0,313.7890625,2048.125,123.138427734375,-1.2825528383255,1.7036896944046,5.41256427764893,0.0464257597923279,0.0464257597923279,0.00733038270846009,75.58203125
0,1,11.001246,299741606,1082088,1800,1150,0,312.578155517578,2047.65625,123.126220703125,0.794417202472687,-2.60339117050171,9.48036289215088,0.0146607654169202,0.0146607654169202,0.0305432621389627,75.56640625
0,1,11.06528,299783726,1082809,1677,1150,0,312.539031982422,2048.0859375,123.126220703125,2.74217462539673,-0.181854516267776,10.5906324386597,-0.01588249579072,-0.01588249579072,0.0232128798961639,75.6484375
0,1,11.085302,299825161,1083520,1701,1150,0,312.539031982422,2047.6171875,123.1201171875,2.99102830886841,3.40259408950806,10.4757785797119,0.0464257597923279,0.0464257597923279,-0.305432617664337,75.59765625
0,1,11.125315,299865374,1084176,1613,1150,0,312.5,2047.109375,123.095703125,-3.57966279983521,1.20119690895081,11.8971138000488,0,0,-0.040317103266716,75.59765625
0,1,11.177328,299905664,1084845,1593,1150,0,313.7109375,2048.0859375,123.123168945313,-5.31685209274292,-0.550349175930023,13.643874168396,0.0378736443817616,0.0378736443817616,0.0232128798961639,75.5859375
0,1,11.213328,299947062,1085498,1586,1150,0,313.984344482422,2048.515625,123.15673828125,5.130211353302,-2.39282274246216,7.23589611053467,-0.03176499158144,-0.03176499158144,-0.01588249579072,75.61328125
0,1,11.247339,299988045,1086206,1673,1150,0,312.5,2047.49987792969,123.126220703125,1.87118721008301,5.28813791275024,10.2891368865967,0.107512280344963,0.107512280344963,-0.0708603635430336,75.61328125
0,1,11.290356,300030596,1086939,1874,1150,0,312.1484375,2051.2890625,123.297119140625,-1.33519506454468,0.124426774680614,6.99182796478271,0.0146607654169202,0.0146607654169202,-0.0794124826788902,75.61328125
0,1,11.332363,300072664,1087679,1715,1150,0,313.320281982422,2051.2109375,123.300170898438,-0.071784682571888,1.34955203533173,9.39422130584717,-0.04764748737216,-0.04764748737216,0.235793977975845,75.66796875
0,1,11.376365,300113805,1088418,1766,1150,0,313.203094482422,2051.015625,123.284912109375,3.36909413337708,-2.01475667953491,11.6004047393799,-0.0232128798961639,-0.0232128798961639,-0.01588249579072,75.61328125
0,1,11.42938,300155162,1089134,1752,1150,0,313.320281982422,2051.36694335938,123.300170898438,4.15394020080566,-2.17746877670288,9.50429153442383,0.304210871458054,0.304210871458054,-0.056199599057436,75.66796875
0,1,11.456384,300196521,1089875,1744,1150,0,313.359375,2051.25,123.291015625,5.83848714828491,-7.3842511177063,6.42712211608887,0.139277264475822,0.139277264475822,-0.056199599057436,75.57421875
0,1,11.497413,300237315,1090595,1812,1150,0,314.531280517578,2050.85913085938,123.291015625,-1.45005059242249,2.59381985664368,7.59960508346558,0.0146607654169202,0.0146607654169202,0.0623082555830479,75.6953125
0,1,11.56141,300278945,1091304,1674,1150,0,314.492156982422,2051.2109375,123.294067382813,-1.84725904464722,1.72283244132996,9.48036289215088,0.107512280344963,0.107512280344963,-0.04764748737216,75.6328125
0,1,11.580415,300319781,1092009,1680,1150,0,314.453125,2051.25,123.287963867188,-1.48833572864532,-3.68016123771667,12.4905347824097,0.0842994004487991,0.0842994004487991,0.0390953756868839,75.62890625
0,1,11.620432,300360849,1092686,1655,1150,0,313.28125,2050.78125,123.287963867188,1.28733861446381,-0.593420028686523,10.4949197769165,0,0,-0.040317103266716,75.66796875
0,1,11.670443,300403074,1093400,1634,1150,0,313.398406982422,2050.85913085938,123.284912109375,-1.7850456237793,-2.37368011474609,8.2360954284668,0.0537561401724815,0.0537561401724815,0.0232128798961639,75.63671875
0,1,11.704439,300444549,1094085,1728,1150,0,312.109344482422,2051.171875,123.300170898438,-2.6560332775116,0.756132006645203,8.37487888336182,0.00733038270846009,0.00733038270846009,0.124616511166096,75.63671875
0,1,11.75245,300491241,1094837,1574,1150,0,313.203094482422,2051.13256835938,123.284912109375,5.72363185882568,0.425922423601151,8.05902671813965,-0.0390953756868839,-0.0390953756868839,-0.03176499158144,75.67578125
0,1,11.799468,300532672,1095524,1683,1150,0,313.359375,2050.9765625,123.269653320313,-2.47417879104614,-0.689132928848267,10.8012008666992,0.0146607654169202,0.0146607654169202,-0.03176499158144,75.62890625
0,1,11.83547,300575485,1096214,1600,1150,0,313.203094482422,2050.2734375,123.2666015625,-7.44167852401733,-1.53140652179718,12.6388883590698,0.0537561401724815,0.0537561401724815,0.0305432621389627,75.5859375
0,1,11.877816,300616266,1096946,1758,1150,0,313.28125,2051.5234375,123.27880859375,-9.03051280975342,6.14955425262451,6.95832824707031,-0.01588249579072,-0.01588249579072,0.0696386322379112,75.60546875
0,1,11.918493,300657716,1097675,1851,1150,0,313.203094482422,2051.328125,123.248291015625,9.50429153442383,-4.28793859481812,2.14396929740906,0.00733038270846009,0.00733038270846009,-0.040317103266716,75.66796875
0,1,11.961499,300698411,1098390,1716,1150,0,313.320281982422,2050.9375,123.193359375,-0.253639191389084,-0.847059190273285,11.4041929244995,0.0146607654169202,0.0146607654169202,0.0623082555830479,78.06640625
0,1,12.002506,300739719,1099128,1816,1150,0,313.2421875,2051.13256835938,123.18115234375,-0.339780777692795,0.248853549361229,9.04487037658691,-0.0232128798961639,-0.0232128798961639,0.0623082555830479,75.6171875
0,1,12.052622,300781866,1099863,1741,1150,0,313.320281982422,2051.484375,123.14453125,-3.27816700935364,0.244067922234535,11.4281215667725,-0.0708603635430336,-0.0708603635430336,0.164933606982231,75.703125
0,1,12.084631,300822944,1100593,1718,1150,0,313.28125,2050.62475585938,123.1201171875,-5.49870634078979,0.224925339221954,7.61874723434448,0.0928515195846558,0.0928515195846558,0.0781907513737679,75.66015625
0,1,12.123641,300863729,1101300,1803,1150,0,313.28125,2050.9765625,123.126220703125,2.27318167686462,-3.44566488265991,6.25005292892456,0.0696386322379112,0.0696386322379112,-0.0635299831628799,75.68359375
0,1,12.16465,300905042,1101999,1660,1150,0,313.398406982422,2051.015625,123.126220703125,-2.70867538452148,-0.00478564528748393,11.6721897125244,0.0464257597923279,0.0464257597923279,0.241902634501457,75.66796875
0,1,12.211658,300945502,1102692,1728,1150,0,312.1875,2051.0546875,123.068237304688,2.26361036300659,2.06739902496338,9.74357318878174,-0.0232128798961639,-0.0232128798961639,-0.03176499158144,75.66796875
0,1,12.25167,300987602,1103386,1632,1150,0,312.031219482422,2050.8203125,123.028564453125,-2.2396821975708,-0.780060172080994,10.4231357574463,0.0146607654169202,0.0146607654169202,-0.03176499158144,75.69140625
0,1,12.288682,301028566,1104078,1625,1150,0,311.367156982422,2048.0078125,122.821044921875,1.7850456237793,-0.885344386100769,9.82492923736572,-0.0232128798961639,-0.0232128798961639,-0.04764748737216,75.75
0,1,12.330686,301069760,1104746,1653,1150,0,312.6171875,2047.890625,122.76611328125,1.06719887256622,-1.27298164367676,13.1653108596802,-0.0232128798961639,-0.0232128798961639,0.133168622851372,75.671875
0,1,12.376697,301113812,1105465,1581,1150,0,312.5,2047.8125,122.708129882813,-7.02054166793823,0.143569365143776,10.9399852752686,0.0464257597923279,0.0464257597923279,-0.0635299831628799,75.76171875
0,1,12.413703,301154026,1106126,1826,1150,0,310.156219482422,2048.0078125,122.64404296875,-3.70887517929077,1.32562363147736,13.1988105773926,0.100181899964809,0.100181899964809,-0.03176499158144,75.78515625
0,1,12.467971,301198898,1106895,1666,1150,0,308.9453125,2047.578125,122.515869140625,4.04865598678589,8.05424118041992,6.43669271469116,-0.01588249579072,-0.01588249579072,0.0623082555830479,75.76953125
0,1,12.500733,301240765,1107641,1762,1150,0,310.1171875,2047.96862792969,122.509765625,0.68434727191925,-4.24486780166626,12.5862483978271,0.0305432621389627,0.0305432621389627,-0.125838235020638,76.85546875
0,1,12.554742,301287718,1108460,1819,1150,0,306.718780517578,2047.6171875,122.500610351563,3.79501676559448,-1.12462663650513,4.62293338775635,0.100181899964809,0.100181899964809,-0.040317103266716,75.7421875
0,1,12.588751,301329169,1109174,1684,1150,0,306.718780517578,2047.578125,122.500610351563,2.26839566230774,0.253639191389084,12.0885400772095,-0.0232128798961639,-0.0232128798961639,0.204028993844986,75.82421875
0,1,12.663763,301404327,1110443,1633,1150,0,307.773406982422,2047.34375,122.482299804688,2.23011088371277,-0.181854516267776,6.8291163444519,-0.101403623819351,-0.101403623819351,0.0464257597923279,75.94921875
0,1,12.70801,301445268,1111132,1673,1150,0,306.718780517578,2047.77331542969,122.451782226563,0.177068874239922,-0.315852612257004,8.75773143768311,-0.00855211354792118,-0.00855211354792118,0.0855211317539215,76.0234375
0,1,12.745782,301485732,1111784,1597,1150,0,306.7578125,2047.49987792969,122.470092773438,-0.961914658546448,2.40239381790161,7.47517776489258,0.0305432621389627,0.0305432621389627,-0.056199599057436,76
0,1,12.791793,301526577,1112485,1674,1150,0,304.3359375,2047.34375,122.442626953125,1.7898313999176,-0.454636335372925,14.1032972335815,-0.03176499158144,-0.03176499158144,0.0549778714776039,75.984375
0,1,12.827801,301567961,1113179,1743,1150,0,304.296844482422,2047.73425292969,122.4365234375,3.39780831336975,-7.95852851867676,12.4570350646973,0.0305432621389627,0.0305432621389627,0.0464257597923279,75.95703125
0,1,12.887907,301608296,1113903,1735,1150,0,303.1640625,2047.73425292969,122.42431640625,9.72921657562256,1.25862467288971,16.8215427398682,0.153938040137291,0.153938040137291,0.0464257597923279,76.03125
0,1,12.91191,301650960,1114662,1816,1150,0,304.375,2047.8515625,122.439575195313,-0.823131024837494,4.40757894515991,9.21715259552002,-0.0623082555830479,-0.0623082555830479,0.133168622851372,75.97265625
0,1,12.961918,301695410,1115425,1701,1150,0,303.124969482422,2047.3046875,122.418212890625,4.46022176742554,-4.38365077972412,13.9980125427246,-0.01588249579072,-0.01588249579072,0.0855211317539215,75.98828125
0,1,13.004929,301736025,1116139,1696,1150,0,304.3359375,2048.0078125,122.457885742188,2.7948169708252,4.08215570449829,7.43689250946045,-0.04764748737216,-0.04764748737216,-0.040317103266716,76.21484375
0,1,13.043936,301777566,1116848,1780,1150,0,304.2578125,2047.890625,122.445678710938,2.66081881523132,-3.50787806510925,5.07278394699097,0.0610865242779255,0.0610865242779255,-0.150272846221924,75.95703125
0,1,13.082945,301819429,1117560,1662,1150,0,304.3359375,2047.421875,122.454833984375,-1.43090796470642,-2.4885356426239,12.1938247680664,-0.251676470041275,-0.251676470041275,0.117286123335361,75.95703125
0,1,13.12596,301861805,1118279,1705,1150,0,304.414031982422,2048.20288085938,122.518920898438,0.48813584446907,1.81375956535339,9.35115146636963,0.273667633533478,0.273667633533478,0.0549778714776039,75.9296875
0,1,13.166379,301903477,1118954,1599,1150,0,304.3359375,2047.92956542969,122.503662109375,-1.59361982345581,2.66081881523132,9.24108123779297,0.0146607654169202,0.0146607654169202,-0.040317103266716,75.9921875
0,1,13.204975,301944793,1119643,1614,1150,0,304.375,2047.77331542969,122.506713867188,2.72781777381897,-0.966700375080109,10.2699947357178,-0.01588249579072,-0.01588249579072,0.0305432621389627,75.95703125
0,1,13.245987,301986401,1120310,1618,1150,0,304.453125,2047.890625,122.509765625,6.27876663208008,-2.19661140441895,10.6241331100464,0.0146607654169202,0.0146607654169202,-0.03176499158144,75.97265625
0,1,13.288998,302028799,1121048,1680,1150,0,305.0390625,2050.89819335938,122.64404296875,-0.114855483174324,3.86201596260071,6.06819820404053,0.0146607654169202,0.0146607654169202,-0.040317103266716,75.99609375
0,1,13.362011,302069233,1121748,1866,1150,0,304.0234375,2051.015625,122.35107421875,-0.248853549361229,0.244067922234535,7.64267539978027,0.00733038270846009,0.00733038270846009,-0.040317103266716,75.97265625
0,1,13.436033,302110802,1122478,1713,1150,0,303.867156982422,2051.015625,122.265625,-2.77088856697083,1.37826585769653,10.121639251709,-0.0232128798961639,-0.0232128798961639,-0.01588249579072,75.95703125
0,1,13.473037,302151612,1123211,1772,1150,0,305.0390625,2050.78125,122.274780273438,2.8761727809906,-1.89990127086639,11.2366952896118,-0.101403623819351,-0.101403623819351,0.0464257597923279,76.015625
0,1,13.491041,302193091,1123930,1755,1150,0,305.0390625,2050.546875,122.27783203125,-2.94317197799683,-1.172483086586,10.3704929351807,-0.00855211354792118,-0.00855211354792118,0.0146607654169202,76.0625
0,1,13.513043,302235770,1124694,1741,1150,0,305.0390625,2050.85913085938,122.274780273438,-1.58883440494537,-4.48414993286133,10.1168537139893,0.123394772410393,0.123394772410393,0.0232128798961639,76.39453125
0,1,13.54505,302276475,1125414,1812,1150,0,302.734375,2051.0546875,122.286987304688,-1.49790692329407,3.2207396030426,8.07338333129883,0.0610865242779255,0.0610865242779255,0.0390953756868839,76.078125
0,1,13.577064,302317436,1126113,1681,1150,0,302.734375,2050.703125,122.274780273438,2.09132695198059,0.334995180368423,6.7621169090271,-0.01588249579072,-0.01588249579072,-0.04764748737216,76.515625
0,1,13.61907,302358829,1126828,1674,1150,0,302.6171875,2051.25,122.27783203125,2.69910407066345,-1.36390888690948,14.2468662261963,-0.0232128798961639,-0.0232128798961639,0.0549778714776039,76.0234375
0,1,13.663078,302402081,1127544,1686,1150,0,302.773406982422,2050.8203125,122.268676757813,3.21116805076599,-1.9860428571701,7.86760091781616,0.00733038270846009,0.00733038270846009,0.0464257597923279,76.0390625
0,1,13.706091,302443827,1128248,1637,1150,0,302.656219482422,2051.09375,122.244262695313,0.564706087112427,-2.26361036300659,6.51804876327515,0.0305432621389627,0.0305432621389627,-0.0708603635430336,75.96484375
0,1,13.750096,302487832,1128984,1756,1150,0,302.734375,2051.0546875,122.238159179688,-0.736989378929138,0.416351169347763,11.0356979370117,0.0696386322379112,0.0696386322379112,-0.01588249579072,76.0546875
0,1,13.789108,302529049,1129664,1622,1150,0,302.734375,2050.78125,122.238159179688,0.0957129076123238,3.23031044006348,11.5238342285156,-0.0940732434391975,-0.0940732434391975,-0.03176499158144,76.0390625
0,1,13.836121,302571222,1130394,1735,1150,0,302.890594482422,2050.85913085938,122.268676757813,-1.33519506454468,-1.78025996685028,9.69571685791016,-0.0708603635430336,-0.0708603635430336,-0.00855211354792118,76.046875
0,1,13.876128,302613652,1131111,1714,1150,0,302.734375,2051.2109375,122.2412109375,0.837487936019897,-1.97168588638306,6.52283430099487,-0.0232128798961639,-0.0232128798961639,0.140499010682106,75.921875
0,1,13.916136,302656197,1131870,1726,1150,0,302.695281982422,2050.62475585938,122.225952148438,-3.71366095542908,-0.0622133873403072,5.85284471511841,0.116064392030239,0.116064392030239,-0.0635299831628799,76.07421875
0,1,13.992153,302698334,1132610,1802,1150,0,302.734375,2051.25,122.247314453125,6.36969375610352,4.24965286254883,5.61356210708618,0.0232128798961639,0.0232128798961639,0.124616511166096,76.140625
0,1,14.014165,302739712,1133308,1659,1150,0,302.695281982422,2050.9765625,122.27783203125,2.29710984230042,1.32562363147736,6.52762031555176,0,0,0.109955742955208,76.0625
0,1,14.040165,302780298,1134003,1661,1150,0,303.90625,2050.9765625,122.32666015625,1.01934242248535,-2.2396821975708,11.4376935958862,0.0232128798961639,0.0232128798961639,0.0305432621389627,76.07421875
0,1,14.081173,302821305,1134670,1626,1150,0,303.984344482422,2050.9765625,122.369384765625,1.57926309108734,-1.69411838054657,10.8203449249268,0.0464257597923279,0.0464257597923279,-0.0952949747443199,76.046875
0,1,14.143283,302862709,1135362,1610,1150,0,303.90625,2051.09375,122.366333007813,2.82831621170044,3.13938331604004,1.03369951248169,0.0232128798961639,0.0232128798961639,-0.0635299831628799,76.8125
0,1,14.166486,302904228,1136044,1765,1150,0,302.8515625,2050.8203125,122.366333007813,4.35493755340576,-1.38305151462555,4.24965286254883,0.0305432621389627,0.0305432621389627,-0.0244346093386412,76.05078125
0,1,14.205299,302944942,1136747,1676,1150,0,298.007781982422,2050.85913085938,122.32666015625,-0.947557806968689,-6.18305397033691,12.7968158721924,0,0,-0.0794124826788902,76.046875
0,1,14.253311,302985199,1137458,1856,1150,0,299.296844482422,2051.0546875,122.311401367188,-4.04387044906616,1.75633192062378,9.56650447845459,0.0146607654169202,0.0146607654169202,-0.01588249579072,76.08203125
0,1,14.289574,303026919,1138185,1719,1150,0,298.4765625,2048.046875,122.1435546875,-1.59361982345581,-1.10548412799835,10.8394870758057,-0.0940732434391975,-0.0940732434391975,-0.040317103266716,76.08984375
0,1,14.332327,303068621,1138932,1730,1150,0,297.3046875,2047.69519042969,122.125244140625,-4.31186676025391,0.057427741587162,8.82951545715332,-0.16371189057827,-0.16371189057827,0.0464257597923279,76.1796875
0,1,14.371338,303110862,1139666,1816,1150,0,296.1328125,2047.77331542969,122.128295898438,5.41735076904297,-4.45543575286865,7.10189771652222,0.0537561401724815,0.0537561401724815,-0.01588249579072,76.06640625
0,1,14.412342,303152352,1140382,1686,1150,0,297.265594482422,2048.0078125,122.116088867188,2.54596328735352,0.698704242706299,14.553147315979,0.0232128798961639,0.0232128798961639,-0.0708603635430336,76.1015625
0,1,14.460353,303194542,1141110,1723,1150,0,297.265594482422,2047.65625,122.10693359375,3.32123780250549,3.94337177276611,7.73360300064087,0,0,-0.00855211354792118,76.08203125
0,1,14.497364,303237096,1141811,1633,1150,0,297.3046875,2047.8125,122.122192382813,0.0334995202720165,1.18684005737305,8.28873729705811,-0.0855211317539215,-0.0855211317539215,-0.0708603635430336,76.0703125
0,1,14.552549,303278468,1142505,1608,1150,0,296.171844482422,2047.8125,122.122192382813,-2.39282274246216,-1.4261223077774,10.2269239425659,-0.03176499158144,-0.03176499158144,0.0390953756868839,76.078125
0,1,14.582383,303320144,1143178,1662,1150,0,297.343719482422,2047.92956542969,122.152709960938,2.28753852844238,-1.1198410987854,4.29750919342041,0.0305432621389627,0.0305432621389627,-0.01588249579072,76.13671875
0,1,14.6274,303367141,1143959,1618,1150,0,296.054656982422,2047.53894042969,122.146606445313,7.89631509780884,-1.77547442913055,12.8638143539429,0.204028993844986,0.204028993844986,-0.056199599057436,76.12890625
0,1,14.667404,303407576,1144652,1825,1150,0,297.343719482422,2047.8125,122.201538085938,1.086341381073,4.49850654602051,12.1986093521118,0.0305432621389627,0.0305432621389627,0.00733038270846009,76.05859375
0,1,14.714047,303454266,1145450,1707,1150,0,297.2265625,2047.34375,122.311401367188,-8.09252643585205,-0.507278382778168,8.18345355987549,0.0305432621389627,0.0305432621389627,-0.205250710248947,76.14453125
0,1,14.76404,303496142,1146184,1684,1150,0,298.59375,2047.6171875,122.433471679688,-0.248853549361229,2.83310198783875,2.12004113197327,0.0464257597923279,0.0464257597923279,0.0696386322379112,78.57421875
0,1,14.803053,303542711,1146982,1786,1150,0,297.265594482422,2047.34375,122.509765625,1.51704955101013,2.60817646980286,9.23151016235352,0.0146607654169202,0.0146607654169202,-0.01588249579072,76.08203125
0,1,14.851077,303582724,1147652,1647,1150,0,297.343719482422,2047.92956542969,122.674560546875,-0.947557806968689,1.31605231761932,6.78604507446289,-0.0623082555830479,-0.0623082555830479,-0.102625355124474,76.13671875
0,1,14.89149,303627832,1148422,1667,1150,0,297.265594482422,2047.3828125,122.781372070313,-3.09152698516846,-0.665204703807831,13.950156211853,-0.01588249579072,-0.01588249579072,0.0232128798961639,76.16796875
0,1,14.934506,303669649,1149109,1659,1150,0,297.3046875,2047.77331542969,122.900390625,-1.21076834201813,-1.63190507888794,10.8873434066772,0.0769690200686455,0.0769690200686455,0.0146607654169202,76.15625
0,1,14.98952,303715949,1149873,1598,1150,0,297.3046875,2047.46081542969,122.918701171875,-2.45503616333008,1.03369951248169,7.41775035858154,0.0464257597923279,0.0464257597923279,-0.03176499158144,76.09375
0,1,15.017517,303757388,1150559,1801,1150,0,296.054656982422,2048.046875,122.96142578125,-0.430708110332489,0.330209523439407,11.7248306274414,0.0232128798961639,0.0232128798961639,-0.0708603635430336,76.16015625
0,1,15.062535,303801914,1151309,1649,1150,0,297.265594482422,2047.6171875,123.046875,-1.27298164367676,6.15433979034424,6.54197692871094,-0.312763005495071,-0.312763005495071,0.0623082555830479,76.21875
0,1,15.106546,303843779,1152060,1778,1150,0,297.343719482422,2048.2421875,123.141479492188,1.3974084854126,-0.449850678443909,13.2083806991577,-0.0708603635430336,-0.0708603635430336,-0.00855211354792118,76.16015625
0,1,15.15355,303890121,1152877,1849,1150,0,297.265594482422,2047.34375,123.15673828125,7.86760091781616,-6.92482852935791,3.94337177276611,-0.00855211354792118,-0.00855211354792118,-0.102625355124474,76.2265625
0,1,15.201567,303931824,1153607,1710,1150,0,297.3046875,2048.0078125,123.178100585938,2.80917382240295,0.244067922234535,13.1270246505737,0.00733038270846009,0.00733038270846009,-0.118507854640484,76.1015625
0,1,15.238568,303976442,1154386,1714,1150,0,296.1328125,2047.46081542969,123.147583007813,-3.95294308662415,-6.26919603347778,8.8917293548584,0.0928515195846558,0.0928515195846558,-0.234572246670723,76.1484375
0,1,15.294631,304016718,1155057,1664,1150,0,298.0859375,2051.328125,123.318481445313,-1.99082839488983,-0.215354055166245,11.2845516204834,0.00733038270846009,0.00733038270846009,0.133168622851372,76.2421875
0,1,15.322628,304063272,1155850,1649,1150,0,297.929718017578,2050.46875,123.275756835938,1.27298164367676,-3.91465783119202,6.03469896316528,0.0842994004487991,0.0842994004487991,0.0232128798961639,78.55078125
0,1,15.364654,304104722,1156549,1797,1150,0,296.835906982422,2050.85913085938,123.27880859375,-2.47896409034729,1.27298164367676,12.2368955612183,0.0464257597923279,0.0464257597923279,0.0146607654169202,76.09765625
0,1,15.413608,304151163,1157332,1651,1150,0,297.890594482422,2050.546875,123.260498046875,-1.27776730060577,1.60797679424286,3.89072966575623,-0.01588249579072,-0.01588249579072,-0.00855211354792118,76.203125
0,1,15.453183,304193673,1158068,1685,1150,0,298.046875,2051.0546875,123.287963867188,-1.08155596256256,-0.875773072242737,12.2703952789307,-0.03176499158144,-0.03176499158144,-0.266337245702744,76.16796875
0,1,15.499191,304236702,1158793,1750,1150,0,298.046875,2050.9375,123.236083984375,-1.43090796470642,-4.37886571884155,10.4422779083252,-0.0623082555830479,-0.0623082555830479,0.0696386322379112,76.1640625
0,1,15.5382,304278266,1159522,1700,1150,0,298.0859375,2051.0546875,123.245239257813,1.11026978492737,-1.89511561393738,8.73380279541016,0.0464257597923279,0.0464257597923279,-0.00855211354792118,76.18359375
0,1,15.585212,304324770,1160335,1759,1150,0,298.0859375,2051.015625,123.251342773438,0.349352121353149,0.00478564528748393,9.96849918365479,0.0146607654169202,0.0146607654169202,0.164933606982231,76.20703125
0,1,15.626706,304366264,1161035,1680,1150,0,298.046875,2051.171875,123.281860351563,-0.464207619428635,-0.526420950889587,11.0931253433228,-0.282219737768173,-0.282219737768173,0.101403623819351,76.20703125
0,1,15.672723,304409711,1161781,1650,1150,0,298.437469482422,2050.8203125,123.291015625,3.20159697532654,1.75633192062378,4.28315305709839,0.0146607654169202,0.0146607654169202,0.109955742955208,76.28125
0,1,15.719726,304451573,1162479,1745,1150,0,298.124969482422,2051.171875,123.312377929688,-0.727418065071106,-0.961914658546448,11.2941226959229,0,0,0.164933606982231,76.171875
0,1,15.757749,304498040,1163236,1591,1150,0,299.140625,2051.0546875,123.284912109375,-0.832702338695526,0.89012998342514,7.10189771652222,0.0464257597923279,0.0464257597923279,-0.04764748737216,76.171875
0,1,15.800748,304539203,1163940,1764,1150,0,298.046875,2051.4453125,123.291015625,-1.95732891559601,-0.574277460575104,11.1074838638306,0,0,-0.00855211354792118,78.15234375
0,1,15.862468,304585010,1164715,1721,1150,0,299.2578125,2050.9375,123.281860351563,0.44506499171257,-3.89551520347595,6.13041162490845,-0.01588249579072,-0.01588249579072,0.0146607654169202,76.2734375
0,1,15.889474,304626632,1165447,1701,1150,0,298.124969482422,2050.9375,123.291015625,3.09631252288818,2.88095855712891,5.18763971328735,0.0464257597923279,0.0464257597923279,0.133168622851372,76.32421875
0,1,15.935506,304674500,1166277,1763,1150,0,298.046875,2051.0546875,123.272705078125,-2.89052987098694,2.19661140441895,9.82492923736572,0.0146607654169202,0.0146607654169202,-0.250454753637314,76.23046875
0,1,15.976625,304716355,1166975,1648,1150,0,298.046875,2051.015625,123.272705078125,-1.44526493549347,0.617348253726959,11.5860471725464,0.0464257597923279,0.0464257597923279,-0.0244346093386412,76.33984375
0,1,16.026637,304761634,1167750,1652,1150,0,298.046875,2051.09375,123.233032226563,0.669990360736847,-0.191425815224648,3.79980254173279,0.0232128798961639,0.0232128798961639,-0.0794124826788902,76.2890625
0,1,16.081249,304802557,1168431,1732,1150,0,298.046875,2051.0546875,123.239135742188,2.51724934577942,-2.2396821975708,6.26919603347778,0.0696386322379112,0.0696386322379112,0.0781907513737679,76.3359375
0,1,16.110257,304849392,1169198,1597,1150,0,298.007781982422,2051.015625,123.147583007813,3.16331148147583,-1.17726874351501,12.6771745681763,-0.0390953756868839,-0.0390953756868839,-0.102625355124474,76.21484375
0,1,16.151267,304891031,1169903,1762,1150,0,298.007781982422,2051.13256835938,123.110961914063,0.808774054050446,3.73280358314514,10.7772722244263,-0.0623082555830479,-0.0623082555830479,0.00733038270846009,76.328125
0,1,16.200278,304937544,1170682,1683,1150,0,298.046875,2050.78125,123.065185546875,-1.15334057807922,-2.40717959403992,11.2749805450439,0.0146607654169202,0.0146607654169202,0,76.32421875
0,1,16.242288,304980250,1171456,1754,1150,0,298.007781982422,2050.89819335938,123.03466796875,5.94855690002441,1.06719887256622,0.775274515151978,0.107512280344963,0.107512280344963,0.0464257597923279,76.328125
0,1,16.284299,305023993,1172240,1851,1150,0,297.265594482422,2047.77331542969,122.872924804688,-1.99561417102814,3.09631252288818,8.97308540344238,0.0146607654169202,0.0146607654169202,0.1795943826437,76.328125
0,1,16.325307,305065344,1172963,1722,1150,0,298.59375,2047.92956542969,122.882080078125,-1.60319113731384,2.29710984230042,6.17826795578003,0.0305432621389627,0.0305432621389627,-0.00855211354792118,77.9921875
0,1,16.372319,305112447,1173800,1726,1150,0,298.515625,2047.73425292969,122.860717773438,1.88554430007935,0.0669990405440331,6.23569583892822,0.0928515195846558,0.0928515195846558,-0.056199599057436,76.41015625
0,1,16.41624,305153468,1174516,1822,1150,0,297.421875,2048.0859375,122.897338867188,1.37826585769653,-1.7898313999176,10.0881395339966,0.0378736443817616,0.0378736443817616,-0.056199599057436,76.359375
0,1,16.457263,305197424,1175269,1677,1150,0,298.515625,2047.92956542969,122.96142578125,-1.67976152896881,0.995414197444916,10.0833559036255,0.0305432621389627,0.0305432621389627,-0.0244346093386412,76.3515625
0,1,16.506263,305238650,1175981,1691,1150,0,297.3046875,2047.890625,123.031616210938,-1.34955203533173,-1.37348020076752,10.5188484191895,0.0146607654169202,0.0146607654169202,-0.0952949747443199,76.390625
0,1,16.547136,305285780,1176761,1693,1150,0,298.203125,2047.96862792969,123.046875,2.57467722892761,-2.06739902496338,11.0787687301636,0.0537561401724815,0.0537561401724815,-0.0952949747443199,76.26953125
0,1,16.587149,305326420,1177434,1606,1150,0,297.343719482422,2047.92956542969,123.062133789063,0.569491803646088,-1.37826585769653,4.9770712852478,0.0378736443817616,0.0378736443817616,0.109955742955208,76.37109375
0,1,16.642174,305371522,1178178,1762,1150,0,298.4765625,2047.77331542969,123.062133789063,2.49810695648193,0.0861416161060333,10.6097755432129,0.0232128798961639,0.0232128798961639,0.101403623819351,76.3359375
0,1,16.672165,305412840,1178861,1623,1150,0,297.382781982422,2047.8125,123.0712890625,-2.89531517028809,4.34536552429199,10.9830560684204,-0.0781907513737679,-0.0781907513737679,0.133168622851372,76.3515625
0,1,16.725175,305460059,1179690,1746,1150,0,298.554656982422,2047.3828125,123.025512695313,-0.95234340429306,0.272781759500504,11.0117702484131,-0.101403623819351,-0.101403623819351,0.133168622851372,76.37890625
0,1,16.789192,305501004,1180400,1808,1150,0,298.515625,2047.77331542969,123.03466796875,-3.59880542755127,-2.73260354995728,10.6672029495239,0.0696386322379112,0.0696386322379112,-0.157603219151497,76.30078125
0,1,16.837202,305544666,1181172,1716,1150,0,297.1875,2047.34375,122.943115234375,-0.172283232212067,-3.06281304359436,13.2370948791504,0.0146607654169202,0.0146607654169202,0.304210871458054,76.43359375
0,1,16.855212,305586007,1181904,1799,1150,0,298.3984375,2047.3828125,122.943115234375,2.50289249420166,3.09631252288818,8.21695327758789,0.0232128798961639,0.0232128798961639,0.00733038270846009,76.45703125
0,1,16.893214,305633359,1182720,1738,1150,0,298.437469482422,2047.1484375,122.921752929688,8.21216773986816,-0.258424878120422,6.27398109436035,0.0232128798961639,0.0232128798961639,0.0146607654169202,76.44140625
0,1,16.936223,305675971,1183457,1677,1150,0,297.343719482422,2047.69519042969,122.930908203125,0.234496623277664,0.220139682292938,9.26500988006592,0.0769690200686455,0.0769690200686455,0.0305432621389627,76.453125
0,1,16.991235,305721063,1184226,1748,1150,0,297.343719482422,2047.65625,122.882080078125,1.29690992832184,1.94775760173798,11.552547454834,0,0,0.00733038270846009,76.41796875
0,1,17.021244,305761632,1184896,1628,1150,0,298.4765625,2047.77331542969,122.836303710938,-0.689132928848267,2.80438852310181,7.81974458694458,0.00733038270846009,0.00733038270846009,0.0696386322379112,76.359375
0,1,17.094593,305831823,1186089,1655,1150,0,298.28125,2047.03112792969,122.7783203125,3.56530570983887,5.62791872024536,8.44666385650635,0.0146607654169202,0.0146607654169202,0.0464257597923279,76.484375
0,1,17.141601,305881587,1186947,1680,1150,0,298.437469482422,2047.578125,122.756958007813,0.0861416161060333,0.363709032535553,8.19781017303467,0.00733038270846009,0.00733038270846009,0.0781907513737679,76.5625
0,1,17.195614,305923093,1187651,1784,1150,0,297.3046875,2047.6171875,122.7783203125,3.39780831336975,-1.31605231761932,7.7144603729248,0.0146607654169202,0.0146607654169202,-0.03176499158144,76.56640625
0,1,17.225623,305964689,1188369,1684,1150,0,296.015625,2047.8125,122.747802734375,0.722632467746735,-3.51266384124756,9.97807121276855,0.0146607654169202,0.0146607654169202,-0.01588249579072,76.5546875
0,1,17.268632,306006316,1189091,1756,1150,0,290.390625,2051.13256835938,122.854614257813,-3.17766880989075,2.48375010490417,10.9782705307007,-0.04764748737216,-0.04764748737216,0.124616511166096,76.53125
0,1,17.308659,306049001,1189803,1653,1150,0,264.570281982422,2051.171875,122.857666015625,-0.196211457252502,0.186640173196793,9.70528888702393,0.00733038270846009,0.00733038270846009,0,76.546875
0,1,17.373671,306090567,1190521,1668,1150,0,202.460922241211,2051.171875,122.854614257813,-4.54636335372925,-2.70867538452148,10.7150592803955,-0.0781907513737679,-0.0781907513737679,0.00733038270846009,76.5078125
0,1,17.391676,306131834,1191214,1758,1150,0,127.578109741211,2050.9765625,122.821044921875,1.7850456237793,-0.713061153888702,3.09152698516846,0.241902634501457,0.241902634501457,-0.0635299831628799,76.5625
0,1,17.435688,306174002,1191946,1686,1150,0,59.4921722412109,2051.015625,122.604370117188,1.09591269493103,-8.0350980758667,11.1840534210205,0,0,0.0696386322379112,76.546875
0,1,17.485703,306216265,1192677,1746,1150,0,15.5468578338623,2051.13256835938,122.604370117188,-2.69431805610657,2.56032037734985,12.8207445144653,-0.117286123335361,-0.117286123335361,0.0305432621389627,76.5
0,1,17.521705,306257191,1193353,1630,1150,0,0,2050.8203125,122.604370117188,1.46919298171997,0.239282250404358,9.19801044464111,0.0464257597923279,0.0464257597923279,1.24127817153931,76.5390625
0,1,17.558715,306298717,1194058,1637,1150,0,0,2051.25,122.787475585938,-1.22512519359589,-1.34955203533173,12.0311126708984,-0.497244298458099,-0.497244298458099,-1.03602743148804,76.5234375
0,1,17.611728,306340997,1194747,1672,1150,0,0,2051.0546875,122.8515625,1.63190507888794,-3.66580438613892,17.2378940582275,0.146607652306557,0.146607652306557,-0.196698606014252,76.5546875
0,1,17.657737,306381504,1195462,1704,1150,0,0,2051.015625,122.872924804688,1.49790692329407,-0.674776017665863,4.07258415222168,0.0696386322379112,0.0696386322379112,0.101403623819351,76.46484375
0,1,17.686743,306423840,1196203,1832,1150,0,0,2051.2109375,122.885131835938,0.0191425811499357,2.00039982795715,11.8109722137451,0.0305432621389627,0.0305432621389627,0.149051114916801,76.5546875
0,1,17.729749,306465156,1196914,1690,1150,0,0,2051.171875,122.9248046875,0.435493737459183,2.172682762146,7.95852851867676,0.0610865242779255,0.0610865242779255,0.0940732434391975,76.53125
0,1,17.771762,306508957,1197684,1707,1150,0,0,2050.234375,122.91259765625,-0.0622133873403072,-1.89511561393738,12.8733854293823,-0.0940732434391975,-0.0940732434391975,0.109955742955208,76.53125
0,1,17.815771,306552820,1198433,1778,1150,0,0,2050.46875,122.946166992188,3.46002149581909,-0.59820568561554,4.01994228363037,0.0610865242779255,0.0610865242779255,0.0781907513737679,76.5546875
0,1,17.854792,306594797,1199150,1667,1150,0,0,2051.2109375,122.964477539063,2.88095855712891,-1.28733861446381,12.6101760864258,0.0305432621389627,0.0305432621389627,-0.196698606014252,76.546875
0,1,17.896788,306636787,1199867,1731,1150,0,0,2050.85913085938,122.879028320313,-2.95274305343628,2.82831621170044,11.2845516204834,-0.759916305541992,-0.759916305541992,-0.605978310108185,76.62109375
0,1,17.940797,306678353,1200549,1618,1150,0,0,2051.2109375,122.238159179688,-1.52183520793915,1.82811641693115,8.40359401702881,-0.186924755573273,-0.186924755573273,0.109955742955208,76.58203125
0,1,17.98982,306719498,1201244,1636,1150,0,0,2051.36694335938,122.2412109375,-1.55533468723297,-2.57467722892761,10.8586292266846,0.0610865242779255,0.0610865242779255,0.101403623819351,76.5703125
0,1,18.022819,306761099,1201919,1645,1150,0,0,2051.2109375,122.2412109375,-1.2825528383255,-5.02492761611938,10.480562210083,-0.00855211354792118,-0.00855211354792118,-0.056199599057436,76.5546875
0,1,18.073829,306802773,1202643,1680,1151,144,0,2050.9765625,122.210693359375,0.100498549640179,-2.71824622154236,3.97208571434021,0.0305432621389627,0.0305432621389627,-0.056199599057436,76.57421875
0,1,18.102836,306843019,1203334,1809,1151,37,0,2051.171875,121.832275390625,1.97168588638306,-0.564706087112427,8.52802085876465,0.0842994004487991,0.0842994004487991,0.0781907513737679,76.5703125
0,1,18.146845,306884416,1204035,1658,1151,20,0,2050.9765625,120.0927734375,4.81914520263672,0.823131024837494,10.1024971008301,-0.01588249579072,-0.01588249579072,0.0549778714776039,76.59375
0,1,18.185838,306925348,1204755,1784,1151,14,0,2051.09375,119.537353515625,0.636490821838379,1.28733861446381,12.3613224029541,-0.00855211354792118,-0.00855211354792118,0.0549778714776039,76.58984375
0,1,18.225848,306966163,1205454,1713,1151,11,0,2051.171875,119.512939453125,-4.00079965591431,-2.09132695198059,12.0119695663452,0.0696386322379112,0.0696386322379112,-0.01588249579072,76.55859375
0,1,18.271859,307006977,1206179,1712,1151,9,0,2047.890625,119.168090820313,-0.200997099280357,1.60319113731384,3.16331148147583,0.100181899964809,0.100181899964809,0.816115975379944,76.58203125
0,1,18.310926,307050816,1206941,1838,1151,7,0,2047.890625,119.1650390625,-3.8859441280365,-0.550349175930023,14.1367959976196,0.100181899964809,0.100181899964809,0.549778699874878,76.57421875
0,1,18.351936,307092326,1207659,1694,1151,6,0,2047.8125,119.1650390625,-6.07776975631714,1.18684005737305,11.9736852645874,-0.0781907513737679,-0.0781907513737679,-0.228463590145111,76.56640625
0,1,18.397945,307136249,1208426,1700,1151,5,0,2047.109375,119.137573242188,-2.02432799339294,-2.15354061126709,13.9214420318604,0.00733038270846009,0.00733038270846009,-0.0952949747443199,76.62890625
0,1,18.443083,307178893,1209139,1701,1151,5,0,2047.6171875,119.137573242188,2.45503616333008,-2.17746877670288,12.1746816635132,-0.03176499158144,-0.03176499158144,0,76.59375
0,1,18.491095,307227689,1209961,1632,1151,4,0,2047.6171875,119.061279296875,5.74277496337891,-2.3497519493103,11.3132648468018,0.0464257597923279,0.0464257597923279,-0.0952949747443199,76.5859375
0,1,18.542105,307268950,1210661,1756,1151,4,0,2047.6171875,119.021606445313,3.66580438613892,3.21116805076599,12.2081813812256,0.0610865242779255,0.0610865242779255,-0.0952949747443199,76.56640625
0,1,18.575112,307313578,1211400,1643,1151,3,0,2047.92956542969,118.997192382813,-2.79003119468689,1.20119690895081,6.60419034957886,0.116064392030239,0.116064392030239,0.0232128798961639,76.59375
0,1,18.614126,307353708,1212088,1653,1151,3,0,2047.53894042969,118.984985351563,-2.78045988082886,-1.83768773078918,9.7340030670166,-0.0623082555830479,-0.0623082555830479,-0.0635299831628799,76.609375
0,1,18.655131,307394701,1212766,1712,1151,3,0,2047.77331542969,118.64013671875,-1.72283244132996,-7.19761085510254,13.423734664917,0.0146607654169202,0.0146607654169202,-0.056199599057436,76.6171875
0,1,18.70114,307436091,1213500,1709,1151,3,0,2047.890625,117.898559570313,9.59043312072754,0.244067922234535,12.8925285339355,0.0146607654169202,0.0146607654169202,-0.0708603635430336,76.63671875
0,1,18.742158,307477331,1214226,1820,1151,2,0,2047.890625,117.788696289063,0.143569365143776,3.31166672706604,8.24566745758057,0.00733038270846009,0.00733038270846009,0.0696386322379112,76.73828125
0,1,18.77816,307518214,1214926,1684,1151,2,0,2047.6171875,117.752075195313,5.47956418991089,0.545563519001007,5.72363185882568,0,0,-0.0244346093386412,76.6015625
0,1,18.819169,307558800,1215640,1715,1151,2,0,2047.65625,117.76123046875,-0.569491803646088,-0.837487936019897,12.7728872299194,0.0378736443817616,0.0378736443817616,-0.040317103266716,76.6328125
0,1,18.863176,307601215,1216360,1737,1151,2,0,2047.77331542969,117.782592773438,1.1198410987854,-2.9048867225647,10.6002054214478,0.0537561401724815,0.0537561401724815,0.00733038270846009,76.609375
0,1,18.903188,307642775,1217075,1670,1151,2,0,2047.53894042969,117.776489257813,-3.34516596794128,-1.11026978492737,9.38943576812744,0.100181899964809,0.100181899964809,0.0464257597923279,76.65234375
0,1,18.9632,307683627,1217773,1797,1151,2,0,2048.0078125,117.776489257813,-0.363709032535553,0.5599205493927,12.2464656829834,-0.04764748737216,-0.04764748737216,0,76.69921875
0,1,18.987206,307725144,1218474,1658,1151,2,0,2047.578125,117.758178710938,2.46460747718811,1.81375956535339,10.4039936065674,-0.0940732434391975,-0.0940732434391975,0.0464257597923279,76.61328125
0,1,19.028215,307767472,1219201,1678,1151,2,0,2048.0859375,117.703247070313,-2.61296248435974,-3.34038043022156,12.3230361938477,0.00733038270846009,0.00733038270846009,0.109955742955208,76.67578125
0,1,19.070227,307810204,1219902,1654,1151,1,0,2047.65625,117.575073242188,0.894915699958801,-1.44047927856445,9.1453685760498,-0.04764748737216,-0.04764748737216,-0.172263994812965,76.75
0,1,19.115417,307852623,1220607,1604,1151,1,0,2047.6171875,117.324829101563,0.756132006645203,-3.2207396030426,7.70010328292847,0.0610865242779255,0.0610865242779255,-0.01588249579072,76.67578125
0,1,19.154431,307893885,1221286,1799,1151,1,0,2047.6171875,117.279052734375,-4.35972261428833,1.28733861446381,7.10668325424194,0.100181899964809,0.100181899964809,0.272445887327194,76.67578125
0,1,19.20544,307938803,1222059,1672,1151,1,0,2047.890625,117.269897460938,-3.49352097511292,4.41715097427368,10.7054882049561,-0.0549778714776039,-0.0549778714776039,0.0696386322379112,76.71875
0,1,19.240864,307980905,1222798,1732,1151,1,0,2047.96862792969,117.266845703125,3.84765863418579,-0.507278382778168,11.3706932067871,0.0305432621389627,0.0305432621389627,-0.0952949747443199,76.66015625
0,1,19.284875,308023923,1223524,1711,1151,1,0,2050.7421875,117.388916015625,3.11545538902283,-1.87118721008301,7.52782011032104,0.0146607654169202,0.0146607654169202,0.00733038270846009,76.671875
0,1,19.410861,308064486,1224235,1699,1151,1,0,2051.171875,117.404174804688,1.27298164367676,-0.224925339221954,5.88155794143677,0.0696386322379112,0.0696386322379112,-0.03176499158144,76.65625
0,1,19.443918,308105880,1224949,1795,1151,1,0,2050.9375,117.401123046875,0.325423896312714,0.693918585777283,11.2031955718994,0,0,0.00733038270846009,76.6171875
0,1,19.46292,308148135,1225657,1644,1151,1,0,2050.546875,117.39501953125,8.00159931182861,1.02412807941437,9.60478973388672,0.00733038270846009,0.00733038270846009,-0.03176499158144,76.7734375
0,1,19.480924,308190613,1226380,1670,1151,1,0,2050.703125,117.474365234375,-2.68953275680542,0.421136766672134,10.7342023849487,0.0378736443817616,0.0378736443817616,-0.03176499158144,76.765625
0,1,19.51495,308232176,1227056,1625,1151,1,0,2050.9765625,117.587280273438,2.30668115615845,-1.72283244132996,11.4089784622192,0.00733038270846009,0.00733038270846009,0.0855211317539215,76.74609375
0,1,19.566959,308273512,1227773,1681,1151,1,0,2051.015625,117.755126953125,4.52722072601318,2.17746877670288,-1.08155596256256,0.0378736443817616,0.0378736443817616,0.0390953756868839,76.6796875
0,1,19.575961,308315715,1228494,1829,1151,1,0,2051.09375,118.634033203125,0.928415238857269,-0.770488917827606,9.29372310638428,0.0146607654169202,0.0146607654169202,0.22724187374115,76.6796875
0,1,19.61797,308358122,1229233,1697,1151,1,0,2051.328125,119.064331054688,-0.0765703245997429,-1.61754810810089,10.50927734375,-0.155159771442413,-0.155159771442413,-0.448375105857849,76.7578125
0,1,19.658986,308398896,1229957,1780,1151,1,0,2051.0546875,119.219970703125,-2.90010118484497,0.516849756240845,10.2987089157104,-0.155159771442413,-0.155159771442413,-0.166155353188515,76.71484375
0,1,19.699994,308440151,1230664,1714,1151,1,0,2051.484375,119.366455078125,-2.4885356426239,-0.947557806968689,8.35095119476318,0.0232128798961639,0.0232128798961639,-0.0952949747443199,76.66015625
0,1,19.744998,308480653,1231377,1694,1151,1,0,2051.2109375,119.390869140625,3.58444833755493,0.545563519001007,4.47457790374756,0.0146607654169202,0.0146607654169202,-0.00855211354792118,76.75
0,1,19.802014,308521523,1232075,1784,1151,1,0,2051.2890625,119.436645507813,-0.071784682571888,-2.95274305343628,9.48993492126465,0.123394772410393,0.123394772410393,0.0781907513737679,76.6328125
0,1,19.825271,308562826,1232768,1641,1151,1,0,2051.13256835938,119.442749023438,-0.526420950889587,-0.186640173196793,13.0073833465576,0,0,0.0232128798961639,76.7421875
0,1,19.865039,308604235,1233464,1698,1151,1,0,2051.328125,119.500732421875,-2.51246380805969,0.0861416161060333,11.3036947250366,-0.0940732434391975,-0.0940732434391975,-0.04764748737216,76.78125
0,1,19.909046,308647346,1234157,1586,1151,1,2.38281488418579,2050.6640625,119.601440429688,-4.57507705688477,1.68933284282684,9.5330057144165,0.0305432621389627,0.0305432621389627,-0.0635299831628799,76.6875
0,1,19.950049,308688854,1234847,1611,1151,1,19.2578144073486,2051.0546875,119.827270507813,-1.29690992832184,-0.105284191668034,11.3611211776733,0.526565849781036,0.526565849781036,0.502131223678589,76.765625
0,1,20.007044,308731615,1235533,1637,1151,1,33.2812385559082,2050.9375,120.068359375,5.90548610687256,-6.20219612121582,19.0468673706055,-0.04764748737216,-0.04764748737216,0,76.74609375
0,1,20.032053,308771974,1236242,1693,1151,1,41.8359336853027,2051.4453125,120.327758789063,-2.69431805610657,1.33040940761566,3.53180646896362,-0.117286123335361,-0.117286123335361,-0.26022857427597,76.8203125
0,1,20.073058,308813363,1236963,1860,1151,0,47.8124923706055,2051.2109375,120.455932617188,-5.12064075469971,0.397208601236343,14.7924289703369,-0.233350530266762,-0.233350530266762,0.345749735832214,76.703125
0,1,20.115056,308854839,1237686,1703,1151,0,60.8203125,2051.40625,120.455932617188,-2.6560332775116,3.79980254173279,11.2366952896118,-0.16371189057827,-0.16371189057827,-0.283441454172134,76.69921875
0,1,20.160068,308896297,1238420,1733,1151,0,59.5703125,2051.13256835938,120.474243164063,-2.04825615882874,-2.29710984230042,14.390435218811,-0.0549778714776039,-0.0549778714776039,0.00733038270846009,76.78125
0,1,20.215078,308937227,1239115,1715,1151,0,58.3984260559082,2051.171875,120.477294921875,3.6370906829834,-0.780060172080994,9.72443199157715,0.0769690200686455,0.0769690200686455,-0.00855211354792118,76.765625
0,1,20.272342,308977873,1239829,1703,1151,0,58.4374961853027,2051.0546875,120.47119140625,3.06759881973267,-0.780060172080994,6.85304403305054,-0.14782939851284,-0.14782939851284,0.0464257597923279,76.69921875
0,1,20.305369,309020631,1240566,1779,1151,0,50.9375038146973,2047.3046875,120.297241210938,-4.01037073135376,-0.258424878120422,13.1748809814453,-0.101403623819351,-0.101403623819351,-0.0794124826788902,78.84765625
0,1,20.322373,309061863,1241253,1639,1151,0,30.6640567779541,2047.92956542969,120.315551757813,-0.301495641469955,2.12004113197327,6.89611482620239,-0.0855211317539215,-0.0855211317539215,-0.150272846221924,76.71875
0,1,20.36338,309102534,1241938,1660,1151,0,9.21875190734863,2047.65625,120.309448242188,0.9906285405159,2.52682089805603,10.9639139175415,0.0610865242779255,0.0610865242779255,0.172263994812965,76.796875
0,1,20.424495,309144600,1242611,1587,1151,0,0,2047.49987792969,120.309448242188,-5.60399055480957,-0.837487936019897,9.23151016235352,0.130725160241127,0.130725160241127,-0.0635299831628799,76.7578125
0,1,20.445497,309186058,1243307,1625,1151,0,0,2047.69519042969,120.3125,3.00059962272644,-1.21076834201813,10.5475625991821,-0.0781907513737679,-0.0781907513737679,-0.0794124826788902,76.796875
0,1,20.490508,309227371,1243982,1705,1151,0,0,2048.046875,120.318603515625,-2.40717959403992,-6.89611482620239,10.4135646820068,-0.117286123335361,-0.117286123335361,0.0232128798961639,76.828125
0,1,20.533522,309271365,1244758,1700,1151,0,0,2047.46081542969,120.294189453125,0.138783723115921,-9.22193813323975,14.5100765228271,0.0305432621389627,0.0305432621389627,-0.0867428630590439,76.734375
0,1,20.573528,309313441,1245501,1784,1151,0,0,2048.0078125,120.303344726563,-3.13938331604004,1.27776730060577,9.04008388519287,0.0146607654169202,0.0146607654169202,-0.205250710248947,76.7578125
0,1,20.618537,309356755,1246237,1689,1151,0,0,2047.578125,120.30029296875,0.9906285405159,-2.79960250854492,11.4568347930908,-0.224798396229744,-0.224798396229744,0.305432617664337,76.71484375
0,1,20.658547,309398289,1246968,1707,1151,0,0,2047.73425292969,120.309448242188,-2.31625247001648,1.67019021511078,5.95812845230103,0.239459171891212,0.239459171891212,0.22724187374115,76.73046875
0,1,20.704572,309443899,1247756,1799,1151,0,0,2047.53894042969,120.294189453125,-0.028713870793581,1.15334057807922,11.2414808273315,-0.03176499158144,-0.03176499158144,0.950506269931793,78.0546875
0,1,20.75055,309484702,1248445,1657,1151,0,6.99219131469727,2047.8515625,120.318603515625,4.77128839492798,1.54097783565521,8.57109069824219,-0.171042263507843,-0.171042263507843,-0.959058403968811,76.79296875
0,1,20.78756,309526532,1249158,1676,1151,0,16.4062385559082,2048.20288085938,120.379638671875,-4.89092922210693,2.07697010040283,11.9880418777466,-0.0708603635430336,-0.0708603635430336,2.80509328842163,77.89453125
0,1,20.852455,309568432,1249837,1614,1151,0,33.0468711853027,2047.69519042969,120.437622070313,-3.20159697532654,-1.26819598674774,10.8394870758057,0.0610865242779255,0.0610865242779255,1.13865280151367,76.76953125
0,1,20.871459,309609795,1250533,1625,1151,0,53.4375,2047.73425292969,120.6787109375,3.13459801673889,2.38803720474243,6.4175500869751,0.0378736443817616,0.0378736443817616,-1.35245561599731,76.81640625
0,1,20.911476,309650721,1251205,1724,1151,0,73.3593673706055,2047.8125,121.066284179688,-4.19222497940063,-1.91904377937317,5.1110692024231,-0.0708603635430336,-0.0708603635430336,0.643851935863495,76.765625
0,1,20.960997,309691108,1251906,1683,1151,0,100.898414611816,2047.65625,121.426391601563,-2.07697010040283,-3.11545538902283,14.3760795593262,0.0305432621389627,0.0305432621389627,0.777020573616028,76.69921875
0,1,20.992007,309731838,1252617,1826,1151,0,119.921859741211,2047.8125,121.719360351563,-2.32582354545593,3.70408964157104,5.81934452056885,-0.365297436714172,-0.365297436714172,0.455705463886261,76.765625
0,1,21.037003,309773418,1253329,1684,1151,0,131.874984741211,2047.77331542969,121.93603515625,0.492921471595764,4.41715097427368,7.7383885383606,-0.403171062469482,-0.403171062469482,0.572991549968719,76.78515625
0,1,21.076006,309814152,1254044,1704,1151,0,135.4296875,2048.0859375,122.067260742188,-0.942772150039673,0.387637257575989,10.9926280975342,0.0610865242779255,0.0610865242779255,0.0720821022987366,76.87109375
0,1,21.11602,309855512,1254740,1716,1151,0,133.046859741211,2047.578125,122.064208984375,2.98624277114868,-3.52223491668701,6.9822564125061,0.0464257597923279,0.0464257597923279,-0.0708603635430336,76.703125
0,1,21.17103,309897827,1255460,1646,1151,0,131.874984741211,2048.1640625,122.08251953125,-1.31605231761932,-1.76111745834351,4.31186676025391,0.153938040137291,0.153938040137291,-0.0952949747443199,76.796875
0,1,21.201052,309940149,1256168,1730,1151,0,130.703125,2047.73425292969,122.0703125,2.37368011474609,-0.435493737459183,11.997612953186,0.00733038270846009,0.00733038270846009,-0.00855211354792118,76.68359375
0,1,21.241047,309980934,1256828,1593,1151,0,129.4921875,2047.65625,122.05810546875,7.42253541946411,2.54117751121521,6.95354318618774,0,0,0.0305432621389627,76.71484375
0,1,21.284055,310022104,1257534,1779,1151,0,130.078109741211,2051.09375,122.2412109375,0.574277460575104,-0.985842943191528,14.9503555297852,-0.01588249579072,-0.01588249579072,0.0146607654169202,76.6875
0,1,21.32608,310065842,1258277,1713,1151,0,131.171859741211,2050.62475585938,122.22900390625,-1.57926309108734,-2.42153668403625,12.4235353469849,0.0537561401724815,0.0537561401724815,-0.0794124826788902,76.73828125
0,1,21.38608,310107496,1259012,1700,1151,0,130.117172241211,2051.171875,122.235107421875,8.68594646453857,-0.263210475444794,10.126425743103,0.0537561401724815,0.0537561401724815,0.204028993844986,76.76171875
0,1,21.422913,310152607,1259792,1802,1151,0,129.921859741211,2051.13256835938,122.225952148438,-0.851844847202301,1.86640179157257,9.71964550018311,-0.0232128798961639,-0.0232128798961639,0.0146607654169202,76.83984375
0,1,21.455918,310196047,1260525,1657,1151,0,130.078109741211,2051.4453125,122.244262695313,-1.66540467739105,4.04865598678589,7.28375244140625,-0.0390953756868839,-0.0390953756868839,-0.0244346093386412,76.7890625
0,1,21.501927,310241981,1261318,1673,1151,0,129.921859741211,2051.0546875,122.213745117188,-0.698704242706299,0.416351169347763,11.2366952896118,-0.01588249579072,-0.01588249579072,0.0696386322379112,76.765625
0,1,21.577994,310317508,1262607,1689,1151,0,130.117172241211,2051.2109375,122.238159179688,5.33599472045898,4.24486780166626,9.80578708648682,0.0464257597923279,0.0464257597923279,0.156381502747536,76.8046875
0,1,21.643007,310381144,1263697,1679,1151,0,129.960922241211,2050.3125,122.198486328125,-2.23489618301392,-0.440279364585876,10.3417797088623,-0.0390953756868839,-0.0390953756868839,0.0855211317539215,76.9375
0,1,21.684016,310421675,1264378,1728,1151,0,130.0390625,2051.171875,122.232055664063,-2.91924357414246,-2.47417879104614,11.3036947250366,-0.266337245702744,-0.266337245702744,-0.040317103266716,76.88671875
0,1,21.744029,310464695,1265113,1664,1151,0,128.945297241211,2051.13256835938,122.238159179688,-2.33539485931396,-1.15812623500824,9.91585636138916,0.0146607654169202,0.0146607654169202,-0.205250710248947,76.875
0,1,21.768034,310505782,1265818,1788,1151,0,128.867172241211,2051.328125,122.2412109375,1.44526493549347,1.8185453414917,8.80558681488037,0.0146607654169202,0.0146607654169202,-0.118507854640484,76.91015625
0,1,21.810038,310547580,1266520,1654,1151,0,128.867172241211,2051.40625,122.232055664063,1.88554430007935,-0.138783723115921,3.84287333488464,-0.04764748737216,-0.04764748737216,0.0305432621389627,76.84375
0,1,21.863048,310589491,1267241,1668,1151,0,129.921859741211,2051.25,122.225952148438,1.31126689910889,-0.626919567584991,13.0456686019897,-0.03176499158144,-0.03176499158144,-0.04764748737216,76.859375
0,1,21.894057,310634178,1267980,1711,1151,0,128.945297241211,2051.09375,122.2412109375,-2.94317197799683,-1.80418825149536,10.6193475723267,-0.01588249579072,-0.01588249579072,0.0464257597923279,76.88671875
0,1,21.935066,310674893,1268678,1664,1151,0,128.828109741211,2050.9765625,122.232055664063,2.8761727809906,-1.16291177272797,9.0113697052002,0.0928515195846558,0.0928515195846558,-0.11117747426033,76.89453125
0,1,21.983079,310716271,1269389,1820,1151,0,128.7890625,2051.015625,122.222900390625,-2.65124726295471,1.87118721008301,11.696117401123,0.0305432621389627,0.0305432621389627,-0.03176499158144,76.90625
0,1,22.019083,310758911,1270116,1674,1151,0,127.65625,2051.4453125,122.2412109375,-3.70887517929077,0.334995180368423,6.07298421859741,-0.0549778714776039,-0.0549778714776039,-0.03176499158144,76.8359375
0,1,22.061098,310801022,1270849,1689,1151,0,127.734359741211,2051.13256835938,122.232055664063,2.65124726295471,-1.56012034416199,12.2751798629761,-0.0390953756868839,-0.0390953756868839,0.0146607654169202,76.875
0,1,22.106102,310842607,1271544,1705,1151,0,128.945297241211,2051.13256835938,122.2412109375,2.08654141426086,-2.50289249420166,11.6865463256836,-0.0623082555830479,-0.0623082555830479,0.156381502747536,76.9765625
0,1,22.160117,310883826,1272260,1684,1151,0,127.578109741211,2050.8203125,122.2900390625,-2.77088856697083,-4.69950389862061,3.80937361717224,0.178372651338577,0.178372651338577,0.0549778714776039,76.859375
0,1,22.190134,310925640,1272986,1848,1151,0,127.734359741211,2051.0546875,122.378540039063,1.90468680858612,2.85224461555481,12.8111715316772,0.0378736443817616,0.0378736443817616,0.0464257597923279,76.8515625
0,1,22.230132,310965763,1273682,1701,1151,0,127.578109741211,2051.13256835938,122.52197265625,-2.51246380805969,4.37408018112183,11.557333946228,-0.0623082555830479,-0.0623082555830479,0.0549778714776039,76.875
0,1,22.270156,311006424,1274399,1726,1151,0,127.109375,2047.8125,122.488403320313,-2.2396821975708,-4.08215570449829,12.1698961257935,0.0464257597923279,0.0464257597923279,0,76.8984375
0,1,22.308148,311047946,1275097,1689,1151,0,128.359375,2048.20288085938,122.531127929688,-0.291924357414246,-0.0430708080530167,10.2221384048462,-0.00855211354792118,-0.00855211354792118,-0.03176499158144,76.83203125
0,1,22.369163,311089992,1275828,1686,1151,0,128.3203125,2048.0859375,122.531127929688,-3.28295254707336,-1.086341381073,8.58066177368164,0.0696386322379112,0.0696386322379112,-0.0794124826788902,76.875
0,1,22.44639,311131516,1276541,1809,1151,0,127.109375,2048.125,122.4853515625,-0.392422914505005,0.124426774680614,10.7772722244263,0.00733038270846009,0.00733038270846009,-0.134390354156494,76.9375
0,1,22.496402,311172971,1277247,1672,1151,0,127.070304870605,2047.65625,122.47314453125,7.06361293792725,-0.114855483174324,9.9206428527832,-0.03176499158144,-0.03176499158144,0.0464257597923279,77.19921875
0,1,22.541413,311213443,1277945,1703,1151,0,127.031234741211,2047.3828125,122.47314453125,3.57487726211548,1.31126689910889,8.07338333129883,0.0232128798961639,0.0232128798961639,-0.040317103266716,76.953125
0,1,22.560417,311255052,1278627,1629,1151,0,127.109375,2048.0859375,122.506713867188,-2.25403904914856,0.105284191668034,9.22193813323975,0.0146607654169202,0.0146607654169202,-0.03176499158144,76.921875
0,1,22.616444,311296322,1279323,1622,1151,0,127.148422241211,2047.77331542969,122.518920898438,1.33519506454468,-1.71326100826263,10.4183492660522,-0.03176499158144,-0.03176499158144,0.423940449953079,76.90234375
0,1,22.701449,311340030,1280043,1760,1151,0,127.031234741211,2047.421875,122.479248046875,1.61754810810089,-0.564706087112427,3.78065991401672,-0.0623082555830479,-0.0623082555830479,-0.228463590145111,76.921875
0,1,22.772473,311382035,1280764,1667,1151,0,121.132789611816,2048.1640625,122.500610351563,0.105284191668034,-1.21076834201813,12.7681016921997,0.100181899964809,0.100181899964809,-0.056199599057436,76.94921875
0,1,22.809488,311426611,1281543,1776,1151,0,91.8359146118164,2047.49987792969,122.476196289063,3.13459801673889,1.75154614448547,8.80080223083496,0.139277264475822,0.139277264475822,-0.50823986530304,76.92578125
0,1,22.847482,311467789,1282243,1696,1151,0,73.3593673706055,2047.8515625,122.491455078125,-9.26022338867188,0.775274515151978,9.97328472137451,0.0537561401724815,0.0537561401724815,-0.04764748737216,76.94921875
0,1,22.865486,311509723,1282979,1693,1151,0,60.2343673706055,2047.46081542969,122.47314453125,2.56989169120789,1.86640179157257,2.25403904914856,0.0769690200686455,0.0769690200686455,-0.040317103266716,76.90625
0,1,22.884491,311550831,1283686,1831,1151,0,31.8749847412109,2047.92956542969,122.491455078125,1.78025996685028,-1.21076834201813,8.82951545715332,-0.00855211354792118,-0.00855211354792118,-0.125838235020638,76.86328125
0,1,22.922507,311593316,1284427,1701,1151,0,14.0234231948853,2047.0703125,122.348022460938,1.66061890125275,0.689132928848267,9.75314521789551,0.0305432621389627,0.0305432621389627,0.124616511166096,76.91015625
0,1,22.981527,311634178,1285145,1741,1151,0,5.66405057907104,2047.53894042969,122.119140625,1.90947258472443,1.21076834201813,6.73340320587158,-0.0855211317539215,-0.0855211317539215,0.140499010682106,76.9375
0,1,23.014528,311675340,1285834,1667,1151,0,3.28123569488525,2047.34375,121.603393554688,-0.9906285405159,-1.25862467288971,8.86780071258545,-0.0708603635430336,-0.0708603635430336,-0.416610062122345,76.9609375
0,1,23.076534,311716570,1286537,1636,1151,0,3.32030653953552,2047.77331542969,121.084594726563,0.258424878120422,-0.263210475444794,7.86760091781616,-0.233350530266762,-0.233350530266762,0.97371917963028,76.91796875
0,1,23.095546,311758218,1287224,1718,1151,0,3.35937738418579,2047.73425292969,120.587158203125,-0.311066955327988,-2.28753852844238,5.60877704620361,0,0,-0.01588249579072,76.7265625
0,1,23.163568,311800415,1287924,1622,1151,0,3.32030653953552,2047.6171875,119.717407226563,-2.57946300506592,-1.74676048755646,12.0885400772095,0.162490159273148,0.162490159273148,0.195476874709129,76.890625
0,1,23.239578,311841643,1288624,1813,1151,0,2.14841961860657,2047.3828125,118.338012695313,5.00578498840332,-0.655633449554443,10.1024971008301,0.519235491752625,0.519235491752625,-0.448375105857849,77.015625
0,1,23.277579,311882512,1289318,1668,1151,0,2.18749046325684,2047.69519042969,116.88232421875,-3.0484561920166,4.85264444351196,6.1399827003479,0.232128784060478,0.232128784060478,-0.321315109729767,76.9765625
0,1,23.295591,311925185,1290067,1712,1151,0,2.10937857627869,2047.53894042969,115.692138671875,-4.03908491134644,-4.20658206939697,12.9786710739136,-0.03176499158144,-0.03176499158144,-0.118507854640484,76.93359375
0,1,23.314602,311967390,1290785,1754,1151,0,2.07030773162842,2047.49987792969,114.739990234375,-0.167497590184212,-2.97188568115234,10.8873434066772,0.0928515195846558,0.0928515195846558,-0.040317103266716,76.93359375
0,1,23.360606,312008727,1291503,1690,1151,0,2.46092677116394,2050.89819335938,114.736938476563,0.162711948156357,-1.06241321563721,9.21715259552002,0.139277264475822,0.139277264475822,-0.0244346093386412,76.91796875
0,1,23.405616,312049411,1292203,1761,1151,0,1.32811069488525,2051.13256835938,114.593505859375,1.60319113731384,2.44067931175232,7.93459987640381,-0.0232128798961639,-0.0232128798961639,-0.0708603635430336,76.89453125
0,1,23.42462,312090792,1292887,1625,1151,0,1.28906965255737,2050.546875,114.053344726563,-3.71366095542908,2.51724934577942,10.2747802734375,-0.0549778714776039,-0.0549778714776039,0.0232128798961639,76.94921875
0,1,23.48164,312132548,1293590,1646,1151,0,1.56250596046448,2051.25,113.430786132813,-5.70927476882935,-0.617348253726959,10.4757785797119,0,0,-0.0244346093386412,76.9921875
0,1,23.529636,312175406,1294279,1615,1151,0,1.28906965255737,2050.546875,112.741088867188,1.564906001091,-2.18704009056091,5.60877704620361,0.0232128798961639,0.0232128798961639,-0.118507854640484,76.984375
0,1,23.549648,312216281,1294997,1699,1151,0,2.38281488418579,2051.328125,112.298583984375,2.18704009056091,4.20658206939697,10.5284185409546,0.130725160241127,0.130725160241127,-0.102625355124474,76.98046875
0,1,23.587654,312257388,1295706,1830,1151,0,2.42185592651367,2051.015625,111.9140625,2.92402935028076,-2.74217462539673,7.87238693237305,-0.04764748737216,-0.04764748737216,-0.102625355124474,76.96875
0,1,23.635662,312298355,1296416,1692,1151,0,1.17185711860657,2050.8203125,111.761474609375,2.32582354545593,-0.947557806968689,14.4382915496826,-0.124616511166096,-0.124616511166096,0.0232128798961639,77.03125
0,1,23.653667,312339304,1297140,1786,1151,0,1.36718153953552,2051.171875,111.77978515625,-3.62751913070679,-0.856630504131317,9.91107082366943,0.0696386322379112,0.0696386322379112,-0.00855211354792118,76.921875
0,1,23.704678,312383426,1297897,1726,1151,0,1.2499988079071,2050.546875,111.752319335938,-5.92941474914551,0.626919567584991,10.5523490905762,-0.0623082555830479,-0.0623082555830479,0.0390953756868839,77.046875
0,1,23.749686,312424672,1298621,1695,1151,0,2.53906846046448,2050.8203125,111.834716796875,5.04885578155518,-1.21076834201813,8.26480960845947,0,0,-0.0952949747443199,76.97265625
0,1,23.769693,312466453,1299340,1798,1151,0,2.42185592651367,2050.5078125,111.807250976563,-2.61774802207947,-0.803988397121429,11.5908327102661,-0.01588249579072,-0.01588249579072,0.288328409194946,76.97265625
0,1,23.8097,312506620,1300018,1658,1151,0,2.42185592651367,2051.13256835938,111.798095703125,-2.29232406616211,-0.473778903484344,11.2127676010132,-0.03176499158144,-0.03176499158144,0.0390953756868839,77.01953125
0,1,23.89672,312553779,1300825,1679,1151,0,1.21092796325684,2050.39038085938,110.986328125,-3.30209517478943,0.550349175930023,14.0458688735962,-0.0708603635430336,-0.0708603635430336,-0.01588249579072,77.0234375
0,1,23.911724,312595845,1301522,1680,1151,0,2.46092677116394,2051.13256835938,109.445190429688,2.20618271827698,-2.82831621170044,7.80538702011108,0.0305432621389627,0.0305432621389627,0.0940732434391975,77.03125
0,1,23.929729,312636978,1302224,1653,1151,0,2.49999761581421,2050.85913085938,108.94775390625,-4.74736022949219,-0.421136766672134,7.3842511177063,0.0928515195846558,0.0928515195846558,-0.00855211354792118,76.95703125
0,1,23.949732,312679363,1302936,1761,1151,0,2.42185592651367,2050.5859375,108.694458007813,-3.24466776847839,0.794417202472687,11.7487602233887,-0.0708603635430336,-0.0708603635430336,0.109955742955208,77.046875
0,1,23.98474,312720899,1303622,1622,1151,0,2.49999761581421,2050.89819335938,107.8125,-0.626919567584991,-0.416351169347763,10.3082790374756,-0.04764748737216,-0.04764748737216,0.133168622851372,77.0234375
0,1,24.024749,312762145,1304328,1747,1151,0,1.28906965255737,2051.0546875,106.640625,1.91904377937317,-1.58883440494537,10.892128944397,-0.00855211354792118,-0.00855211354792118,0.00733038270846009,77.07421875
0,1,24.066757,312803499,1305018,1656,1151,0,1.32811069488525,2052.1875,105.72509765625,-1.8185453414917,-2.11525511741638,8.74337387084961,0,0,0.0696386322379112,77.0625
0,1,24.108768,312844306,1305777,1822,1151,0,2.53906846046448,2051.40625,104.727172851563,-3.53180646896362,-0.74656069278717,2.02911353111267,0.0696386322379112,0.0696386322379112,-0.0708603635430336,77.0546875
0,1,24.145815,312885434,1306544,2092,1151,0,2.49999761581421,2051.09375,103.219604492188,-2.737389087677,-0.851844847202301,6.26440954208374,0.0696386322379112,0.0696386322379112,0.164933606982231,79.48046875
0,1,24.187825,312927536,1307389,1949,1151,0,2.57810950279236,2050.89819335938,102.03857421875,-1.17726874351501,2.11525511741638,11.19362449646,0.162490159273148,0.162490159273148,0.195476874709129,77.04296875
0,1,24.228349,312968818,1308284,2180,1151,0,2.53906846046448,2051.25,101.25732421875,9.94457149505615,2.25403904914856,1.1198410987854,0.426383942365646,0.426383942365646,0.777020573616028,77.08984375
0,1,24.27036,313009660,1309215,2432,1151,0,1.05467438697815,2047.77331542969,100.949096679688,14.2707948684692,-0.0765703245997429,13.4189500808716,-0.372627794742584,-0.372627794742584,1.02869701385498,79.40234375
0,1,24.314646,313050970,1310207,2500,1151,0,2.14841961860657,2048.0859375,100.729370117188,7.90110015869141,3.82373070716858,3.71366095542908,0.0146607654169202,0.0146607654169202,1.02136671543121,77.05078125
0,1,24.354134,313093846,1311269,2499,1151,0,1.01563334465027,2047.73425292969,99.9725341796875,-13.3950214385986,1.5074782371521,-0.244067922234535,-0.224798396229744,-0.224798396229744,-0.684169054031372,77.1015625
0,1,24.412616,313135817,1312338,2519,1151,0,1.05467438697815,2047.8125,99.8504638671875,8.94437122344971,-5.40299367904663,19.2526512145996,0.394618928432465,0.394618928432465,-0.125838235020638,77.078125
0,1,24.437624,313176176,1313414,2646,1151,0,0.937491655349731,2047.578125,99.8626708984375,-1.60797679424286,13.7491588592529,33.533016204834,0.883311152458191,0.883311152458191,-0.409279704093933,77.06640625
0,1,24.477629,313217224,1314558,2778,1151,0,0.390619039535522,2048.28125,100.30517578125,7.7383885383606,18.9607257843018,-7.82453012466431,0.285884916782379,0.285884916782379,-0.00855211354792118,77.08203125
0,1,24.51946,313258064,1315728,2855,1151,0,0,2047.96862792969,100.836181640625,-19.8987121582031,16.4434776306152,12.8973140716553,0.153938040137291,0.153938040137291,0.431270837783813,77.0859375
0,1,24.579473,313300442,1316938,2833,1151,0,0,2048.125,100.820922851563,-1.03848505020142,19.7025012969971,-5.71406078338623,0.533896267414093,0.533896267414093,0,77.078125
0,1,24.604488,313343806,1318153,2771,1152,90,0,2048.046875,100.76904296875,-20.8606281280518,17.5633182525635,4.54636335372925,0.665843069553375,0.665843069553375,-1.09222710132599,77.09375
0,1,24.645489,313385098,1319294,2737,1152,31,0,2047.73425292969,100.738525390625,3.41216492652893,17.0177536010742,-0.468993246555328,0.224798396229744,0.224798396229744,-0.26022857427597,77.11328125
0,1,24.698258,313428512,1320491,2752,1152,18,0,2047.34375,100.592041015625,5.7523455619812,12.5288190841675,-0.421136766672134,0.588874101638794,0.588874101638794,-0.228463590145111,77.08203125
0,1,24.729272,313468965,1321610,2772,1153,53,0,2047.77331542969,100.537109375,1.69411838054657,-7.87717199325562,12.2751798629761,-0.0708603635430336,-0.0708603635430336,0.730594873428345,77.16015625
0,1,24.783269,313510898,1322775,2792,1153,25,0,2047.8125,100.668334960938,5.08235502243042,-12.0837545394897,15.4337062835693,-0.543670058250427,-0.543670058250427,0.635299861431122,77.1171875
0,1,24.813276,313552913,1323947,2799,1154,51,0,2047.77331542969,101.214599609375,6.63769006729126,1.28733861446381,8.44187927246094,0.201585531234741,0.201585531234741,-0.935845494270325,77.1953125
0,1,24.857619,313593934,1325088,2782,1155,0,0,2047.421875,101.437377929688,2.36889433860779,2.19182538986206,-3.16809725761414,-0.372627794742584,-0.372627794742584,-0.141720727086067,77.1171875
0,1,24.896635,313636338,1326259,2758,1155,39,0,2047.890625,101.470947265625,5.97727108001709,5.33599472045898,-13.8448724746704,0.123394772410393,0.123394772410393,1.50639367103577,77.05859375
0,1,24.938639,313678416,1327416,2751,1156,94,0,2048.0859375,100.973510742188,-6.0299129486084,0.272781759500504,-4.24486780166626,-0.178372651338577,-0.178372651338577,0.019547687843442,77.14453125
0,1,24.986641,313721024,1328586,2743,1156,31,0,2047.3046875,99.639892578125,8.33659362792969,-3.80458784103394,-0.756132006645203,-0.76846843957901,-0.76846843957901,0.101403623819351,77.1328125
0,1,25.022653,313762282,1329729,2791,1157,68,0,2047.73425292969,98.583984375,2.9048867225647,-7.06361293792725,16.0749816894531,-0.333532422780991,-0.333532422780991,0.368962615728378,77.15234375
0,1,25.062662,313802934,1330867,2819,1158,113,0,2048.515625,98.15673828125,-4.57507705688477,-14.1607246398926,44.2050094604492,0.0769690200686455,0.0769690200686455,-0.880867660045624,77.16015625
0,1,25.105678,313844216,1332008,2761,1161,0,0,2047.77331542969,98.1231689453125,-11.5812606811523,15.7256298065186,24.8231430053711,0.883311152458191,0.883311152458191,-0.315206438302994,77.14453125
0,1,25.146684,313886571,1333154,2744,1167,346,0,2048.125,98.2818603515625,17.0033988952637,23.88037109375,-6.29790925979614,0.394618928432465,0.394618928432465,-0.331088960170746,77.19140625
0,1,25.187692,313927227,1334190,2563,1179,617,0,2047.8515625,98.6083984375,43.0899543762207,-17.5681037902832,-7.01097011566162,0.379958152770996,0.379958152770996,0.266337245702744,77.14453125
0,1,25.232709,313967918,1335210,2460,1193,669,0,2047.69519042969,99.566650390625,-1.41655099391937,-8.34138011932373,5.29770946502686,0.533896267414093,0.533896267414093,0.572991549968719,77.17578125
0,1,25.274529,314009148,1336229,2343,1206,607,0.195294618606567,2051.13256835938,101.275634765625,-8.91565704345703,-10.4566345214844,38.2755889892578,-0.682947337627411,-0.682947337627411,2.43490886688232,77.25390625
