command_auxdaq_sdwrite,flag_auxdaq_sdwrite,time_internal_seconds,time_auxdaq_us,position_engine_ticks,speed_engine_rpm,position_secondary_ticks,speed_secondary_rpm,pressure_frontbrake_psi,pressure_rearbrake_psi,lds_pedal_mm,imu_acceleration_x,imu_acceleration_y,imu_acceleration_z,imu_gyro_x,imu_gyro_y,imu_gyro_z,imu_temperature
0,1,13.604138,22791467,391818,1805,0,0,222.265594482422,2059.375,125.009155273438,0.550349175930023,-2.25403904914856,13.0791683197021,-0.03176499158144,-0.03176499158144,0.0232128798961639,37.88671875
0,1,13.604138,22795254,391885,1780,0,0,220.937484741211,2051.796875,124.624633789063,4.53679132461548,4.19222497940063,6.37926578521729,0.0146607654169202,0.0146607654169202,-0.118507854640484,38.1796875
0,1,13.605139,22798896,391948,1758,0,0,222.0703125,2051.71875,124.636840820313,3.53180646896362,0.215354055166245,7.21196794509888,-0.03176499158144,-0.03176499158144,0.0305432621389627,38.1796875
0,1,13.605139,22802688,392014,1738,0,0,221.015609741211,2051.953125,124.6337890625,-3.48394989967346,1.68454706668854,9.40857887268066,0.0305432621389627,0.0305432621389627,-0.03176499158144,38.1796875
0,1,13.605139,22806425,392078,1721,0,0,220.9765625,2051.640625,124.639892578125,-2.13918328285217,0.215354055166245,9.40857887268066,-0.0232128798961639,-0.0232128798961639,0.0305432621389627,38.1796875
0,1,13.605139,22810105,392141,1713,0,0,222.0703125,2051.640625,124.612426757813,-0.210568383336067,-2.09132695198059,3.53659200668335,0.0146607654169202,0.0146607654169202,0.0549778714776039,38.1796875
0,1,13.605139,22813768,392204,1721,0,0,220.9765625,2051.5625,124.618530273438,0.789631545543671,-4.15394020080566,11.2366952896118,0.0305432621389627,0.0305432621389627,-0.0720821022987366,38.3984375
0,1,13.605139,22817570,392272,1746,0,0,221.054672241211,2052.03125,124.636840820313,1.48355007171631,-1.44047927856445,4.51286315917969,0.0610865242779255,0.0610865242779255,0.0390953756868839,38.3984375
0,1,13.605139,22821311,392338,1764,0,0,221.054672241211,2052.10913085938,124.639892578125,0.191425815224648,-2.92881488800049,11.0835542678833,0.0464257597923279,0.0464257597923279,-0.03176499158144,38.3984375
0,1,13.605139,22825245,392407,1766,0,0,220.898422241211,2051.9140625,124.64599609375,4.71864604949951,5.82891654968262,4.02951335906982,-0.00855211354792118,-0.00855211354792118,-0.0244346093386412,38.3984375
0,1,13.605139,22829143,392475,1756,0,0,220.9765625,2051.6796875,124.624633789063,-5.09671258926392,4.65643310546875,11.0548410415649,-0.0232128798961639,-0.0232128798961639,0.0232128798961639,38.3984375
0,1,13.60614,22833195,392545,1742,0,0,222.0703125,2051.2890625,124.615478515625,-4.83828783035278,-0.406779855489731,8.4227352142334,0.0146607654169202,0.0146607654169202,-0.0635299831628799,38.6328125
0,1,13.60614,22837197,392615,1739,0,0,220.937484741211,2051.953125,124.636840820313,4.33579444885254,-1.55054903030396,9.49472045898438,-0.0708603635430336,-0.0708603635430336,-0.0794124826788902,38.6328125
0,1,13.60614,22841137,392686,1761,0,0,222.148422241211,2052.0703125,124.636840820313,-6.00598478317261,-2.37846565246582,10.0115699768066,-0.00855211354792118,-0.00855211354792118,-0.0720821022987366,38.6328125
0,1,13.60614,22845038,392758,1801,0,0,220.859375,2051.484375,124.618530273438,6.64247560501099,2.9048867225647,0.67956155538559,0.0305432621389627,0.0305432621389627,-0.0879645943641663,38.6328125
0,1,13.60614,22849093,392832,1833,0,0,220.937484741211,2051.484375,124.62158203125,4.11565494537354,-0.722632467746735,5.130211353302,0.0378736443817616,0.0378736443817616,-0.118507854640484,38.6328125
0,1,13.60614,22853088,392906,1840,0,0,221.015609741211,2051.9921875,124.642944335938,-7.8484582901001,-4.06779861450195,7.53739166259766,0.0378736443817616,0.0378736443817616,-0.0879645943641663,38.86328125
0,1,13.60614,22857041,392977,1826,0,0,220.937484741211,2051.7578125,124.6337890625,19.1377944946289,0.220139682292938,10.6911315917969,0.00733038270846009,0.00733038270846009,-0.17470745742321,38.86328125
0,1,13.60614,22860947,393047,1803,0,0,220.9765625,2052.0703125,124.6337890625,-10.1503534317017,-0.602991282939911,13.2466669082642,-0.0940732434391975,-0.0940732434391975,-0.01588249579072,38.86328125
0,1,13.60614,22864999,393118,1777,0,0,221.015609741211,2051.9921875,124.639892578125,3.0484561920166,4.63250494003296,4.5894341468811,0,0,-0.0794124826788902,38.86328125
0,1,13.60714,22868992,393188,1754,0,0,220.9765625,2051.7578125,124.636840820313,0.756132006645203,-2.12482643127441,7.72881698608398,-0.0708603635430336,-0.0708603635430336,0.256563395261765,38.86328125
0,1,13.60714,22872933,393255,1736,0,0,220.859375,2051.484375,124.612426757813,-0.401994198560715,-0.234496623277664,8.19781017303467,-0.0232128798961639,-0.0232128798961639,-0.103847093880177,39.04296875
0,1,13.60714,22876837,393322,1722,0,0,220.898422241211,2051.40625,124.627685546875,-2.47896409034729,-0.708275496959686,6.52283430099487,0.0696386322379112,0.0696386322379112,-0.00855211354792118,39.04296875
0,1,13.60714,22880882,393393,1724,0,0,220.937484741211,2051.71875,124.618530273438,6.13041162490845,-4.60379076004028,11.7344026565552,0.0232128798961639,0.0232128798961639,-0.0720821022987366,39.04296875
0,1,13.60714,22884861,393463,1743,0,0,220.898422241211,2051.640625,124.618530273438,3.99122834205627,-1.33998072147369,3.19681096076965,0.0696386322379112,0.0696386322379112,-0.056199599057436,39.04296875
0,1,13.60714,22888788,393532,1760,0,0,220.9765625,2051.796875,124.639892578125,4.54157733917236,-3.34995174407959,10.0642118453979,-0.00855211354792118,-0.00855211354792118,0.0305432621389627,39.04296875
0,1,13.60714,22897394,393683,1750,0,0,220.859375,2051.640625,124.615478515625,-13.811372756958,4.72821760177612,8.54716205596924,-0.01588249579072,-0.01588249579072,0.00733038270846009,39.33203125
0,1,13.60714,22903766,393793,1735,0,0,220.937484741211,2051.71875,124.627685546875,0.00957129057496786,-0.244067922234535,12.3421783447266,0,0,-0.040317103266716,39.33203125
0,1,13.60714,22907741,393864,1749,0,0,220.9765625,2051.9921875,124.6337890625,-5.18285417556763,-3.08195567131042,12.294322013855,-0.03176499158144,-0.03176499158144,-0.03176499158144,39.33203125
0,1,13.608139,22911671,393935,1786,0,0,220.898422241211,2051.7578125,124.630737304688,10.0546407699585,3.27816700935364,3.93380045890808,-0.0390953756868839,-0.0390953756868839,0.0305432621389627,39.484375
0,1,13.608139,22915556,394007,1823,0,0,220.859375,2051.484375,124.609375,-16.2807655334473,-2.66081881523132,1.68454706668854,0.0232128798961639,0.0232128798961639,-0.056199599057436,39.484375
0,1,13.608139,22919593,394081,1839,0,0,220.937484741211,2051.87475585938,124.642944335938,3.12981200218201,-4.18743944168091,11.2989082336426,0.0696386322379112,0.0696386322379112,0.0232128798961639,39.484375
0,1,13.608139,22923553,394153,1830,0,0,220.898422241211,2051.640625,124.618530273438,9.298508644104,0.311066955327988,13.179666519165,0.0537561401724815,0.0537561401724815,-0.103847093880177,39.484375
0,1,13.608139,22927459,394223,1810,0,0,220.859375,2051.640625,124.62158203125,-2.87138748168945,-1.9812570810318,11.1314115524292,-0.00855211354792118,-0.00855211354792118,0.102625355124474,39.484375
0,1,13.608139,22931334,394291,1785,0,0,220.937484741211,2051.87475585938,124.642944335938,1.85683047771454,5.71406078338623,5.99162769317627,-0.0708603635430336,-0.0708603635430336,0,39.71484375
0,1,13.608139,22935358,394362,1761,0,0,222.109375,2052.2265625,124.642944335938,-3.57487726211548,-0.368494689464569,8.99222755432129,0,0,0.0146607654169202,39.71484375
0,1,13.608139,22939324,394430,1741,0,0,220.898422241211,2051.60131835938,124.618530273438,-2.2396821975708,0.981057286262512,8.05902671813965,0.00733038270846009,0.00733038270846009,0.0232128798961639,39.71484375
0,1,13.608139,22943246,394497,1725,0,0,220.859375,2051.40625,124.618530273438,-3.32602334022522,1.60797679424286,11.4903335571289,-0.0232128798961639,-0.0232128798961639,0.0549778714776039,39.71484375
0,1,13.609138,22947119,394565,1723,0,0,222.3828125,2052.6953125,124.69482421875,1.55533468723297,0.57906311750412,1.66061890125275,-0.00855211354792118,-0.00855211354792118,-0.040317103266716,39.71484375
0,1,13.609138,22951141,394636,1743,0,0,221.09375,2052.1484375,124.642944335938,-0.392422914505005,-2.87138748168945,1.89032995700836,0.00733038270846009,0.00733038270846009,0.0464257597923279,39.87890625
0,1,13.609138,22955141,394707,1772,0,0,222.031234741211,2051.640625,124.62158203125,5.95812845230103,-2.99581384658813,7.95852851867676,0.0305432621389627,0.0305432621389627,-0.056199599057436,39.87890625
0,1,13.609138,22959080,394778,1785,0,0,220.859375,2051.328125,124.612426757813,0.483350187540054,2.23489618301392,14.1559391021729,0.0305432621389627,0.0305432621389627,-0.056199599057436,39.87890625
0,1,13.609138,22962981,394847,1779,0,0,219.804672241211,2051.60131835938,124.627685546875,1.84247350692749,4.09172677993774,9.90628623962402,-0.298102229833603,-0.298102229833603,-0.01588249579072,39.87890625
0,1,13.609138,22967033,394918,1764,0,0,222.148422241211,2051.83569335938,124.6337890625,-4.12522602081299,1.6223338842392,8.25523853302002,-0.0781907513737679,-0.0781907513737679,0.0232128798961639,39.87890625
0,1,13.609138,22971026,394988,1755,0,0,221.054672241211,2051.83569335938,124.642944335938,-10.346565246582,-2.37846565246582,12.8494577407837,-0.03176499158144,-0.03176499158144,0.0146607654169202,40.0625
0,1,13.609138,22974973,395058,1765,0,0,220.8203125,2051.7578125,124.62158203125,-1.26341044902802,-1.9238293170929,11.5764760971069,-0.0623082555830479,-0.0623082555830479,0.0146607654169202,40.0625
0,1,13.609138,22978885,395130,1801,0,0,220.9765625,2051.640625,124.630737304688,-10.0881395339966,6.11605453491211,3.9672999382019,-0.04764748737216,-0.04764748737216,-0.0794124826788902,40.0625
0,1,13.609138,22982940,395206,1841,0,0,220.9765625,2052.0703125,124.642944335938,2.28753852844238,0.95234340429306,1.12462663650513,0.0769690200686455,0.0769690200686455,-0.040317103266716,40.0625
0,1,13.61014,22986944,395280,1858,0,0,220.898422241211,2051.796875,124.62158203125,7.59960508346558,-3.18723964691162,11.3611211776733,0.0537561401724815,0.0537561401724815,0.162490159273148,40.0625
0,1,13.61014,22990884,395352,1850,0,0,220.937484741211,2051.796875,124.6337890625,0.196211457252502,-0.440279364585876,11.7296171188354,0.0610865242779255,0.0610865242779255,-0.150272846221924,40.265625
0,1,13.61014,22994791,395423,1829,0,0,220.898422241211,2051.87475585938,124.636840820313,-8.7768726348877,0.334995180368423,11.6530466079712,-0.03176499158144,-0.03176499158144,-0.01588249579072,40.265625
0,1,13.61014,22998853,395496,1803,0,0,220.8203125,2051.328125,124.59716796875,-0.68434727191925,5.88155794143677,3.64666175842285,-0.03176499158144,-0.03176499158144,-0.04764748737216,40.265625
0,1,13.61014,23002852,395566,1780,0,0,220.898422241211,2051.796875,124.6337890625,0.229710966348648,-1.74676048755646,9.91585636138916,-0.04764748737216,-0.04764748737216,-0.0635299831628799,40.265625
0,1,13.61014,23006794,395635,1760,0,0,220.390625,2048.7109375,124.468994140625,-1.31126689910889,0.162711948156357,5.62313318252563,-0.00855211354792118,-0.00855211354792118,-0.0794124826788902,40.48046875
0,1,13.61014,23010567,395701,1746,0,0,220.351547241211,2048.67163085938,124.481201171875,-3.10588383674622,1.66061890125275,11.777473449707,0.00733038270846009,0.00733038270846009,0.164933606982231,40.48046875
0,1,13.61014,23021152,395886,1751,0,0,220.312469482422,2048.7109375,124.47509765625,1.82811641693115,-2.52682089805603,4.96271419525146,0.0378736443817616,0.0378736443817616,0.00733038270846009,40.48046875
0,1,13.61114,23025279,395958,1754,0,0,220.4296875,2048.8671875,124.478149414063,-3.19202542304993,-0.196211457252502,16.2137660980225,0.00733038270846009,0.00733038270846009,0.0232128798961639,40.48046875
0,1,13.61114,23029109,396025,1748,0,0,220.312469482422,2048.67163085938,124.47509765625,7.34117984771729,5.92462873458862,3.47916412353516,-0.03176499158144,-0.03176499158144,0.00733038270846009,40.671875
0,1,13.61114,23032886,396090,1735,0,0,220.234359741211,2048.515625,124.453735351563,4.64686155319214,2.86181592941284,9.08794021606445,0.00733038270846009,0.00733038270846009,-0.0635299831628799,40.671875
0,1,13.61114,23036805,396157,1722,0,0,220.2734375,2048.43725585938,124.459838867188,0.267996162176132,-0.803988397121429,6.56590509414673,0.0305432621389627,0.0305432621389627,-0.04764748737216,40.671875
0,1,13.61114,23040668,396224,1722,0,0,220.351547241211,2048.90600585938,124.465942382813,8.42752170562744,-4.71386051177979,12.6915311813354,-0.00855211354792118,-0.00855211354792118,0.125838235020638,40.671875
0,1,13.61114,23044479,396292,1744,0,0,221.484359741211,2048.59375,124.472045898438,0.612562596797943,-0.775274515151978,7.19761085510254,0.0146607654169202,0.0146607654169202,-0.040317103266716,40.671875
0,1,13.61114,23048602,396366,1783,0,0,220.2734375,2048.28125,124.453735351563,16.2233371734619,1.24426782131195,0.842273533344269,-0.03176499158144,-0.03176499158144,0.189368218183517,41.14453125
0,1,13.61114,23052366,396435,1810,0,0,220.195297241211,2048.7109375,124.459838867188,-1.19641137123108,2.96710014343262,4.19222497940063,-0.24312436580658,-0.24312436580658,-0.17470745742321,41.14453125
0,1,13.61114,23056076,396502,1818,0,0,220.234359741211,2048.28125,124.45068359375,-2.94795751571655,-5.62791872024536,6.62333345413208,0.0537561401724815,0.0537561401724815,0.0549778714776039,41.14453125
0,1,13.61114,23059742,396568,1808,0,0,220.312469482422,2048.90600585938,124.468994140625,-3.62751913070679,3.11066937446594,9.43729209899902,0.0305432621389627,0.0305432621389627,0.0464257597923279,41.14453125
0,1,13.612139,23063465,396634,1787,0,0,219.062484741211,2048.5546875,124.465942382813,5.21156787872314,-2.78524541854858,15.3332071304321,-0.01588249579072,-0.01588249579072,-0.11117747426033,41.14453125
0,1,13.612139,23067228,396699,1763,0,0,220.4296875,2048.7109375,124.47509765625,5.82413053512573,4.43629360198975,5.65184736251831,-0.04764748737216,-0.04764748737216,0.0940732434391975,40.99609375
0,1,13.612139,23070961,396764,1741,0,0,220.390625,2049.0234375,124.468994140625,0.95234340429306,0.339780777692795,7.74796009063721,-0.0232128798961639,-0.0232128798961639,0,40.99609375
0,1,13.612139,23074632,396827,1724,0,0,220.234359741211,2048.20288085938,124.447631835938,-3.41695070266724,-1.27298164367676,9.57607650756836,0.0769690200686455,0.0769690200686455,-0.0635299831628799,40.99609375
0,1,13.612139,23078356,396890,1708,0,0,220.312469482422,2048.3203125,124.453735351563,2.91924357414246,1.45962178707123,9.2458667755127,0.00733038270846009,0.00733038270846009,0.0623082555830479,40.99609375
0,1,13.612139,23082374,396958,1701,0,0,221.3671875,2048.359375,124.447631835938,3.92901492118835,-0.550349175930023,0.966700375080109,-0.0232128798961639,-0.0232128798961639,0.0390953756868839,40.99609375
0,1,13.612139,23086340,397026,1706,0,0,220.312469482422,2048.359375,124.453735351563,1.43569374084473,-2.46460747718811,5.02014207839966,0.0464257597923279,0.0464257597923279,0.0232128798961639,41.19140625
0,1,13.612139,23090264,397094,1718,0,0,220.390625,2048.94506835938,124.47509765625,8.07338333129883,-1.10548412799835,10.4949197769165,0.0537561401724815,0.0537561401724815,0.0781907513737679,41.19140625
0,1,13.612139,23094248,397162,1722,0,0,220.234359741211,2048.2421875,124.453735351563,-1.52662086486816,0.708275496959686,13.2562370300293,0.0232128798961639,0.0232128798961639,0.0867428630590439,41.19140625
0,1,13.613141,23098273,397231,1713,0,0,220.351547241211,2048.3984375,124.447631835938,-0.516849756240845,2.12004113197327,7.69053220748901,-0.03176499158144,-0.03176499158144,0.0623082555830479,41.19140625
0,1,13.613141,23102238,397298,1699,0,0,220.312469482422,2048.828125,124.47509765625,13.5768756866455,-0.57906311750412,6.65683269500732,-0.0390953756868839,-0.0390953756868839,0.0146607654169202,41.19140625
0,1,13.613141,23106163,397364,1687,0,0,220.312469482422,2048.5546875,124.472045898438,-7.34117984771729,2.37846565246582,8.62851810455322,0.0610865242779255,0.0610865242779255,-0.04764748737216,41.30078125
0,1,13.613141,23110144,397431,1689,0,0,220.351547241211,2048.5546875,124.472045898438,2.65124726295471,-3.68016123771667,9.34636497497559,-0.01588249579072,-0.01588249579072,0.0464257597923279,41.30078125
0,1,13.613141,23114186,397502,1714,0,0,220.2734375,2048.3984375,124.453735351563,-6.65683269500732,3.41216492652893,14.1942234039307,0.0146607654169202,0.0146607654169202,-0.01588249579072,41.30078125
0,1,13.613141,23118157,397573,1753,0,0,220.390625,2048.7890625,124.47509765625,-17.7786712646484,-3.56051993370056,5.40777921676636,-0.0390953756868839,-0.0390953756868839,0.0867428630590439,41.30078125
0,1,13.613141,23122079,397643,1781,0,0,220.2734375,2048.7109375,124.472045898438,14.3282222747803,-0.440279364585876,4.77128839492798,0.0842994004487991,0.0842994004487991,0.0623082555830479,41.30078125
0,1,13.613141,23126059,397714,1784,0,0,220.351547241211,2048.515625,124.465942382813,-5.54656267166138,-0.545563519001007,7.84367275238037,0.0146607654169202,0.0146607654169202,0.189368218183517,41.47265625
0,1,13.613141,23134656,397863,1739,0,0,220.312469482422,2048.4765625,124.453735351563,-0.512064039707184,3.4695930480957,5.77627372741699,-0.04764748737216,-0.04764748737216,-0.17470745742321,41.47265625
0,1,13.614141,23141762,397983,1699,0,0,220.312469482422,2048.43725585938,124.459838867188,1.81375956535339,-1.61276257038116,9.86321449279785,-0.03176499158144,-0.03176499158144,-0.150272846221924,41.47265625
0,1,13.614141,23146483,398062,1676,0,0,220.2734375,2048.59375,124.453735351563,4.30708122253418,0.0813559740781784,8.02074146270752,0.304210871458054,0.304210871458054,-0.14294245839119,41.62890625
0,1,13.614141,23150443,398127,1663,0,0,220.234359741211,2048.28125,124.459838867188,0.459421932697296,-1.74197494983673,4.95314311981201,0,0,-0.182037845253944,41.62890625
0,1,13.614141,23154458,398195,1667,0,0,220.390625,2049.0625,124.4873046875,-6.81954479217529,-0.344566464424133,8.87258720397949,0.0305432621389627,0.0305432621389627,-0.0952949747443199,41.62890625
0,1,13.614141,23158402,398262,1687,0,0,220.390625,2048.67163085938,124.47509765625,12.5431756973267,-4.16351127624512,5.49870634078979,0.0232128798961639,0.0232128798961639,-0.0635299831628799,41.62890625
0,1,13.614141,23165005,398374,1702,0,0,219.101547241211,2048.20288085938,124.459838867188,7.47039222717285,3.95294308662415,5.39342212677002,-0.00855211354792118,-0.00855211354792118,0.0232128798961639,41.78515625
0,1,13.614141,23168972,398441,1692,0,0,220.15625,2048.1640625,124.447631835938,-13.0600261688232,3.45045018196106,11.8205442428589,0,0,0.0708603635430336,41.78515625
0,1,13.614141,23172977,398508,1679,0,0,220.351547241211,2048.828125,124.47509765625,9.17886829376221,-0.00478564528748393,6.71426010131836,0.0146607654169202,0.0146607654169202,0.0940732434391975,41.78515625
0,1,13.614141,23176924,398574,1671,0,0,220.351547241211,2048.7890625,124.47509765625,-1.79461693763733,0.0334995202720165,8.66201877593994,-0.03176499158144,-0.03176499158144,0.125838235020638,41.78515625
0,1,13.61514,23180830,398640,1676,0,0,220.351547241211,2048.94506835938,124.47509765625,1.56012034416199,-3.54137754440308,10.2891368865967,-0.0232128798961639,-0.0232128798961639,0.0146607654169202,41.78515625
0,1,13.61514,23184777,398709,1706,0,0,220.1171875,2046.640625,124.411010742188,-5.65184736251831,3.37866568565369,5.28335237503052,0,0,0.00733038270846009,41.9296875
0,1,13.61514,23188763,398779,1744,0,0,220.195297241211,2048.046875,124.4384765625,-10.6863460540771,3.36430859565735,4.49850654602051,-0.0549778714776039,-0.0549778714776039,-0.0635299831628799,41.9296875
0,1,13.61514,23192701,398849,1768,0,0,220.351547241211,2048.359375,124.459838867188,5.77627372741699,-1.60797679424286,8.83430194854736,0.0769690200686455,0.0769690200686455,-0.0794124826788902,41.9296875
0,1,13.61514,23196599,398918,1768,0,0,220.312469482422,2048.67163085938,124.472045898438,-0.387637257575989,1.15334057807922,8.13081169128418,0.0146607654169202,0.0146607654169202,-0.0244346093386412,41.9296875
0,1,13.61514,23200549,398986,1751,0,0,220.234359741211,2048.3203125,124.45068359375,0.363709032535553,-2.21575355529785,11.0356979370117,0.00733038270846009,0.00733038270846009,0.26511549949646,41.9296875
0,1,13.61514,23204539,399054,1726,0,0,220.351547241211,2048.75,124.472045898438,2.79003119468689,2.05782747268677,8.38444995880127,-0.101403623819351,-0.101403623819351,-0.150272846221924,42.03515625
0,1,13.61514,23208471,399121,1702,0,0,220.312469482422,2048.4765625,124.468994140625,-4.76171684265137,0.760917603969574,11.854043006897,-0.01588249579072,-0.01588249579072,0.00733038270846009,42.03515625
0,1,13.61514,23212363,399185,1683,0,0,220.2734375,2048.28125,124.45068359375,-0.421136766672134,0.660419046878815,8.81994438171387,-0.0232128798961639,-0.0232128798961639,0.0549778714776039,42.03515625
0,1,13.61514,23216358,399252,1665,0,0,220.2734375,2048.2421875,124.45068359375,-3.72323203086853,1.32083809375763,3.36909413337708,0.0146607654169202,0.0146607654169202,0.0146607654169202,42.03515625
0,1,13.61614,23220378,399318,1651,0,0,221.601547241211,2048.43725585938,124.462890625,1.58404862880707,-4.29750919342041,5.34556579589844,0.00733038270846009,0.00733038270846009,0.149051114916801,42.03515625
0,1,13.61614,23224343,399384,1653,0,0,220.2734375,2048.515625,124.47509765625,3.87637257575989,-3.12024068832397,9.90149974822998,0,0,0.117286123335361,42.1875
0,1,13.61614,23228263,399450,1670,0,0,220.351547241211,2048.828125,124.472045898438,9.25543785095215,-1.30648124217987,1.7850456237793,0.0305432621389627,0.0305432621389627,0.0867428630590439,42.1875
0,1,13.61614,23232253,399517,1686,0,0,220.2734375,2048.67163085938,124.472045898438,-6.55633401870728,0.76570326089859,11.8444728851318,-0.03176499158144,-0.03176499158144,-0.01588249579072,42.1875
0,1,13.61614,23236282,399585,1686,0,0,219.062484741211,2048.4765625,124.444580078125,2.43110799789429,2.81395936012268,3.64666175842285,-0.0232128798961639,-0.0232128798961639,0.0390953756868839,42.1875
0,1,13.61614,23240264,399651,1675,0,0,220.390625,2048.67163085938,124.472045898438,0.550349175930023,2.39282274246216,8.64766120910645,0.0305432621389627,0.0305432621389627,0.0390953756868839,42.1875
0,1,13.61614,23244187,399716,1661,0,0,220.2734375,2048.67163085938,124.453735351563,13.9118700027466,-0.133998081088066,8.87258720397949,-0.00855211354792118,-0.00855211354792118,0.109955742955208,42.32421875
0,1,13.61614,23248175,399782,1652,0,0,219.101547241211,2048.359375,124.459838867188,-4.39322280883789,-0.234496623277664,9.95892810821533,0.0378736443817616,0.0378736443817616,-0.00855211354792118,42.32421875
0,1,13.61614,23252200,399849,1661,0,0,220.351547241211,2048.6328125,124.47509765625,-0.507278382778168,-3.82373070716858,11.2558374404907,-0.0232128798961639,-0.0232128798961639,0,42.32421875
0,1,13.617141,23261310,400008,1740,0,0,220.15625,2048.046875,124.429321289063,4.4793643951416,-0.483350187540054,2.54596328735352,0.146607652306557,0.146607652306557,-0.182037845253944,42.5234375
0,1,13.617141,23265939,400089,1753,0,0,220.1171875,2048.0859375,124.45068359375,4.63729047775269,-3.38345122337341,8.58066177368164,0,0,0.0549778714776039,42.5234375
0,1,13.617141,23269931,400158,1740,0,0,220.312469482422,2048.6328125,124.465942382813,-3.09152698516846,0.119641125202179,10.6002054214478,0.0146607654169202,0.0146607654169202,0.125838235020638,42.5234375
0,1,13.617141,23273950,400226,1717,0,0,220.312469482422,2048.43725585938,124.462890625,3.93380045890808,-0.48813584446907,14.6871452331543,-0.108734011650085,-0.108734011650085,0.125838235020638,42.5234375
0,1,13.617141,23277505,400286,1694,0,0,220.078109741211,2048.43725585938,124.40185546875,6.92482852935791,2.41675090789795,5.13978338241577,-0.00855211354792118,-0.00855211354792118,0.133168622851372,42.5234375
0,1,13.617141,23281309,400349,1673,0,0,220.2734375,2048.515625,124.456787109375,-6.14955425262451,0.904487013816833,4.92442941665649,-0.03176499158144,-0.03176499158144,0.0305432621389627,42.71875
0,1,13.617141,23284874,400408,1656,0,0,220.15625,2047.890625,124.4384765625,2.05304193496704,1.83290219306946,13.9740839004517,0.0305432621389627,0.0305432621389627,-0.0635299831628799,42.71875
0,1,13.617141,23288764,400471,1639,0,0,220.2734375,2048.515625,124.459838867188,-0.464207619428635,0.119641125202179,8.00159931182861,0.0610865242779255,0.0610865242779255,0.0146607654169202,42.71875
0,1,13.617141,23292320,400529,1628,0,0,220.2734375,2048.0859375,124.45068359375,-1.79461693763733,-3.36430859565735,6.89132976531982,-0.0232128798961639,-0.0232128798961639,-0.03176499158144,42.71875
0,1,13.618141,23296113,400591,1634,0,0,220.312469482422,2048.67163085938,124.481201171875,-6.39362192153931,-0.382851630449295,8.51844882965088,-0.03176499158144,-0.03176499158144,0.0146607654169202,42.71875
0,1,13.618141,23299668,400651,1653,0,0,220.351547241211,2048.828125,124.4873046875,5.85762977600098,-1.67497587203979,3.10109806060791,0.0305432621389627,0.0305432621389627,-0.03176499158144,42.71875
0,1,13.618141,23303568,400716,1670,0,0,220.312469482422,2048.75,124.478149414063,-6.19741058349609,1.09112703800201,10.4231357574463,0.0305432621389627,0.0305432621389627,-0.0244346093386412,42.87109375
0,1,13.618141,23307762,400786,1673,0,0,220.195297241211,2048.3984375,124.45068359375,-2.52682089805603,2.58903384208679,3.45523595809937,0.0146607654169202,0.0146607654169202,-0.0244346093386412,42.87109375
0,1,13.618141,23311407,400846,1664,0,0,220.351547241211,2048.6328125,124.4873046875,-0.588634371757507,1.61276257038116,7.81974458694458,-0.04764748737216,-0.04764748737216,0.0867428630590439,42.87109375
0,1,13.618141,23315200,400909,1651,0,0,220.351547241211,2048.6328125,124.465942382813,-16.0701961517334,1.81375956535339,8.81994438171387,-0.0232128798961639,-0.0232128798961639,-0.056199599057436,42.87109375
0,1,13.618141,23318937,400970,1641,0,0,219.1796875,2048.59375,124.472045898438,-8.28873729705811,1.086341381073,9.47557735443115,-0.03176499158144,-0.03176499158144,0.0623082555830479,42.87109375
0,1,13.618141,23322634,401031,1646,0,0,220.312469482422,2048.59375,124.462890625,-10.3992080688477,-1.30648124217987,9.03529739379883,-0.00855211354792118,-0.00855211354792118,0.0623082555830479,42.984375
0,1,13.618141,23326286,401094,1672,0,0,220.351547241211,2048.3984375,124.472045898438,-4.09651231765747,0.928415238857269,10.3226366043091,-0.0549778714776039,-0.0549778714776039,0.0305432621389627,42.984375
0,1,13.619159,23330082,401160,1711,0,0,220.312469482422,2048.6328125,124.481201171875,-1.66540467739105,2.6273193359375,4.19701099395752,-0.0232128798961639,-0.0232128798961639,-0.056199599057436,42.984375
0,1,13.619159,23333820,401225,1740,0,0,220.351547241211,2048.67163085938,124.47509765625,12.5862483978271,0.215354055166245,5.72841739654541,0.0928515195846558,0.0928515195846558,-0.0244346093386412,42.984375
0,1,13.619159,23337506,401289,1746,0,0,219.257797241211,2048.515625,124.47509765625,5.93898630142212,-3.00538492202759,9.13579654693604,0.0696386322379112,0.0696386322379112,-0.01588249579072,42.984375
0,1,13.619159,23341403,401356,1733,0,0,220.351547241211,2048.5546875,124.481201171875,2.69910407066345,-0.263210475444794,12.299108505249,0,0,0,43.13671875
0,1,13.619159,23345461,401425,1709,0,0,220.351547241211,2048.828125,124.47509765625,-10.1742820739746,1.18205440044403,11.5621194839478,-0.0940732434391975,-0.0940732434391975,-0.03176499158144,43.13671875
0,1,13.619159,23349456,401491,1684,0,0,220.312469482422,2048.3203125,124.459838867188,7.65224695205688,0.928415238857269,8.12602615356445,-0.00855211354792118,-0.00855211354792118,0,43.13671875
0,1,13.619159,23353392,401556,1661,0,0,220.390625,2048.75,124.47509765625,-9.41814994812012,1.88554430007935,2.29710984230042,-0.04764748737216,-0.04764748737216,-0.01588249579072,43.13671875
0,1,13.619159,23357294,401620,1641,0,0,220.234359741211,2047.8125,124.453735351563,0.00478564528748393,1.96690022945404,7.95852851867676,-0.00855211354792118,-0.00855211354792118,0.0146607654169202,43.13671875
0,1,13.619159,23361346,401685,1620,0,0,220.312469482422,2048.0859375,124.456787109375,5.49870634078979,-0.564706087112427,9.078369140625,-0.01588249579072,-0.01588249579072,0.109955742955208,43.27734375
0,1,13.620159,23365350,401750,1615,0,0,220.2734375,2048.59375,124.478149414063,-1.60797679424286,-5.05364179611206,19.2335071563721,-0.0390953756868839,-0.0390953756868839,0.180816113948822,43.27734375
0,1,13.620159,23372727,401875,1684,0,0,221.40625,2048.2421875,124.444580078125,4.89571523666382,-0.406779855489731,7.71924543380737,0.00733038270846009,0.00733038270846009,-0.166155353188515,43.27734375
0,1,13.620159,23379098,401984,1714,0,0,219.101547241211,2048.3984375,124.459838867188,-0.468993246555328,2.80917382240295,10.121639251709,0.0537561401724815,0.0537561401724815,0.0940732434391975,43.5078125
0,1,13.620159,23383292,402055,1706,0,0,220.390625,2048.3203125,124.47509765625,14.084153175354,0.626919567584991,8.22173881530762,0.00733038270846009,0.00733038270846009,-0.182037845253944,43.5078125
0,1,13.620159,23387279,402123,1693,0,0,220.312469482422,2048.20288085938,124.456787109375,-8.36052227020264,-0.100498549640179,13.2323093414307,-0.0232128798961639,-0.0232128798961639,-0.134390354156494,43.5078125
0,1,13.620159,23391215,402189,1685,0,0,219.101547241211,2048.43725585938,124.459838867188,6.16869688034058,-1.08155596256256,11.6147603988647,0.0146607654169202,0.0146607654169202,-0.118507854640484,43.5078125
0,1,13.620159,23395117,402256,1696,0,0,220.234359741211,2048.7890625,124.468994140625,-11.2223377227783,-1.87118721008301,8.75773143768311,-0.0708603635430336,-0.0708603635430336,-0.0244346093386412,43.5078125
0,1,13.620159,23399175,402328,1734,0,0,220.351547241211,2048.984375,124.478149414063,-7.37946510314941,5.04406976699829,4.9435715675354,-0.0390953756868839,-0.0390953756868839,-0.056199599057436,43.6015625
0,1,13.620159,23403152,402400,1777,0,0,220.4296875,2048.6328125,124.47509765625,-4.09172677993774,2.22053956985474,5.48434925079346,0.100181899964809,0.100181899964809,0,43.6015625
0,1,13.621149,23407083,402470,1796,0,0,220.195297241211,2048.359375,124.447631835938,-12.9260282516479,-1.83290219306946,10.0163555145264,0.0378736443817616,0.0378736443817616,-0.056199599057436,43.6015625
0,1,13.621149,23410967,402539,1788,0,0,219.140625,2048.8671875,124.468994140625,5.474778175354,-2.09611248970032,10.3178520202637,0.0842994004487991,0.0842994004487991,0.0232128798961639,43.6015625
0,1,13.621149,23415001,402609,1766,0,0,220.351547241211,2048.4765625,124.478149414063,-3.92901492118835,-0.976271688938141,18.5730895996094,-0.0232128798961639,-0.0232128798961639,0.0464257597923279,43.6015625
0,1,13.621149,23418988,402678,1740,0,0,220.2734375,2048.43725585938,124.459838867188,0.124426774680614,5.53699159622192,5.71406078338623,-0.0708603635430336,-0.0708603635430336,0.0781907513737679,43.703125
0,1,13.621149,23422914,402745,1715,0,0,220.2734375,2048.59375,124.468994140625,-8.1020975112915,-0.928415238857269,3.3308093547821,0.26511549949646,0.26511549949646,-0.0720821022987366,43.703125
0,1,13.621149,23426802,402810,1694,0,0,220.390625,2048.75,124.47509765625,1.9812570810318,2.44546461105347,9.40857887268066,0.0378736443817616,0.0378736443817616,0.0146607654169202,43.703125
0,1,13.621149,23430838,402877,1672,0,0,220.2734375,2048.125,124.447631835938,-9.52822017669678,-0.0239282269030809,11.3659076690674,-0.04764748737216,-0.04764748737216,0,43.703125
0,1,13.621149,23434814,402943,1666,0,0,220.195297241211,2048.125,124.453735351563,7.81017351150513,-3.23031044006348,13.7683019638062,0.0305432621389627,0.0305432621389627,0,43.703125
0,1,13.621149,23438722,403012,1697,0,0,220.234359741211,2048.1640625,124.447631835938,-3.32602334022522,-3.70887517929077,1.04805624485016,-0.0623082555830479,-0.0623082555830479,-0.0244346093386412,43.859375
0,1,13.621149,23442601,403081,1745,0,0,220.351547241211,2048.43725585938,124.478149414063,-0.320638209581375,0.296710014343262,6.05862712860107,0.0696386322379112,0.0696386322379112,-0.0244346093386412,43.859375
0,1,13.622159,23446626,403152,1773,0,0,220.312469482422,2048.7109375,124.472045898438,-1.24905347824097,2.83788776397705,13.7348031997681,-0.01588249579072,-0.01588249579072,0.0232128798961639,43.859375
0,1,13.622159,23450599,403222,1774,0,0,220.351547241211,2048.5546875,124.468994140625,-3.07238435745239,3.8524444103241,13.2083806991577,0.0610865242779255,0.0610865242779255,-0.0244346093386412,43.859375
0,1,13.622159,23454508,403291,1763,0,0,220.234359741211,2048.2421875,124.45068359375,3.50309228897095,3.59401988983154,5.69013214111328,0.00733038270846009,0.00733038270846009,-0.04764748737216,43.859375
0,1,13.622159,23458382,403358,1750,0,0,220.234359741211,2048.2421875,124.453735351563,-2.38803720474243,-1.51704955101013,11.6434745788574,-0.0940732434391975,-0.0940732434391975,0.0390953756868839,43.94921875
0,1,13.622159,23462412,403429,1750,0,0,220.312469482422,2048.7109375,124.472045898438,-1.12462663650513,-2.49810695648193,12.2560377120972,0,0,0,43.94921875
0,1,13.622159,23466383,403501,1776,0,0,221.445297241211,2048.6328125,124.472045898438,-3.78544521331787,-2.4598217010498,11.7296171188354,-0.0549778714776039,-0.0549778714776039,-0.00855211354792118,43.94921875
0,1,13.622159,23470321,403574,1820,0,0,220.312469482422,2048.0859375,124.459838867188,-11.475977897644,7.43210744857788,-6.0969123840332,0.00733038270846009,0.00733038270846009,0.00733038270846009,43.94921875
0,1,13.622159,23474228,403647,1852,0,0,220.234359741211,2048.4765625,124.462890625,2.37368011474609,-0.416351169347763,6.70468902587891,0.100181899964809,0.100181899964809,-0.0952949747443199,43.94921875
0,1,13.622159,23478283,403722,1855,0,0,219.1796875,2048.8671875,124.481201171875,3.87158679962158,-4.79043102264404,11.1218395233154,0.123394772410393,0.123394772410393,-0.0720821022987366,44.09765625
0,1,13.623159,23482279,403795,1837,0,0,220.2734375,2048.4765625,124.462890625,-2.99581384658813,-1.75154614448547,12.6532459259033,-0.0623082555830479,-0.0623082555830479,0.0146607654169202,44.09765625
0,1,13.623159,23486231,403865,1812,0,0,220.2734375,2048.046875,124.462890625,3.30688095092773,-0.478564500808716,9.9206428527832,-0.04764748737216,-0.04764748737216,-0.0794124826788902,44.09765625
0,1,13.623159,23494665,404014,1761,0,0,221.5234375,2048.1640625,124.459838867188,-5.04885578155518,-0.196211457252502,9.52822017669678,0.0464257597923279,0.0464257597923279,-0.118507854640484,44.09765625
0,1,13.623159,23500195,404109,1737,0,0,220.234359741211,2048.3203125,124.459838867188,-12.7154588699341,0.713061153888702,11.0739831924438,0.0232128798961639,0.0232128798961639,0.0940732434391975,44.1953125
0,1,13.623159,23504187,404179,1739,0,0,220.234359741211,2048.28125,124.456787109375,4.59421968460083,-4.03908491134644,11.3802642822266,-0.01588249579072,-0.01588249579072,-0.21135938167572,44.1953125
0,1,13.623159,23508121,404250,1767,0,0,220.312469482422,2048.59375,124.481201171875,2.26839566230774,-2.39760828018188,0.894915699958801,0.0696386322379112,0.0696386322379112,0.0623082555830479,44.1953125
0,1,13.623159,23512027,404321,1797,0,0,220.312469482422,2048.828125,124.478149414063,-1.7898313999176,-2.40717959403992,10.2987089157104,-0.01588249579072,-0.01588249579072,0.0390953756868839,44.1953125
0,1,13.623159,23516085,404394,1807,0,0,220.312469482422,2048.515625,124.47509765625,-0.0382851622998714,8.09252643585205,8.45144939422607,0.0146607654169202,0.0146607654169202,-0.01588249579072,44.359375
0,1,13.623159,23520080,404466,1800,0,0,220.15625,2048.2421875,124.462890625,-11.6434745788574,4.58464813232422,11.696117401123,0.0610865242779255,0.0610865242779255,0.0232128798961639,44.359375
0,1,13.624144,23524017,404536,1786,0,0,220.312469482422,2048.3203125,124.472045898438,1.41655099391937,1.18205440044403,6.91525793075562,0,0,-0.040317103266716,44.359375
0,1,13.624144,23527922,404605,1781,0,0,220.234359741211,2048.3203125,124.47509765625,2.86660146713257,-1.19641137123108,10.4757785797119,0.0232128798961639,0.0232128798961639,-0.0720821022987366,44.359375
0,1,13.624144,23531843,404677,1797,0,0,220.312469482422,2048.046875,124.45068359375,10.4039936065674,-2.32103800773621,14.1894388198853,-0.00855211354792118,-0.00855211354792118,0.233350530266762,44.359375
0,1,13.624144,23538230,404797,1858,0,0,220.351547241211,2048.3203125,124.478149414063,3.00538492202759,0.497707098722458,1.65583336353302,0.0146607654169202,0.0146607654169202,0.0549778714776039,44.46484375
0,1,13.624144,23542053,404869,1880,0,0,220.390625,2048.67163085938,124.4873046875,1.40697968006134,-1.66061890125275,8.41795063018799,0.0537561401724815,0.0537561401724815,-0.0794124826788902,44.46484375
0,1,13.624144,23545829,404939,1878,0,0,220.351547241211,2048.6328125,124.4873046875,-5.43170738220215,-1.69411838054657,10.3322086334229,0.0378736443817616,0.0378736443817616,-0.0952949747443199,44.46484375
0,1,13.624144,23549753,405011,1861,0,0,220.312469482422,2048.67163085938,124.47509765625,7.32682275772095,-1.83768773078918,13.3088798522949,0.250454753637314,0.250454753637314,-0.0879645943641663,44.46484375
0,1,13.624144,23553615,405082,1837,0,0,220.312469482422,2048.4765625,124.47509765625,-0.181854516267776,2.68953275680542,8.41316413879395,-0.0549778714776039,-0.0549778714776039,-0.00855211354792118,44.46484375
0,1,13.624144,23557428,405150,1813,0,0,220.234359741211,2048.3984375,124.465942382813,-3.6370906829834,2.44546461105347,8.2360954284668,0.0378736443817616,0.0378736443817616,0.0940732434391975,44.58984375
0,1,13.625157,23561213,405218,1794,0,0,220.195297241211,2047.92956542969,124.465942382813,1.83290219306946,-1.00019991397858,11.8731861114502,0.234572246670723,0.234572246670723,-0.056199599057436,44.58984375
0,1,13.625157,23565383,405291,1778,0,0,220.312469482422,2048.28125,124.468994140625,-5.01535654067993,-0.760917603969574,10.6337041854858,0.0537561401724815,0.0537561401724815,0.157603219151497,44.58984375
0,1,13.625157,23569093,405357,1772,0,0,220.234359741211,2048.59375,124.478149414063,-1.87597298622131,-1.14376926422119,-0.660419046878815,0,0,0,44.58984375
0,1,13.625157,23572762,405423,1777,0,0,220.2734375,2048.515625,124.478149414063,-0.885344386100769,-3.1537401676178,11.2175540924072,0.130725160241127,0.130725160241127,-0.03176499158144,44.58984375
0,1,13.625157,23576483,405490,1788,0,0,220.234359741211,2048.515625,124.47509765625,7.00139951705933,-4.24486780166626,7.65703201293945,0.00733038270846009,0.00733038270846009,0.0305432621389627,44.62890625
0,1,13.625157,23580257,405557,1794,0,0,220.390625,2048.828125,124.490356445313,1.64147627353668,-3.09152698516846,14.4239358901978,-0.01588249579072,-0.01588249579072,-0.040317103266716,44.62890625
0,1,13.625157,23583988,405624,1790,0,0,220.312469482422,2048.515625,124.462890625,2.12482643127441,7.6618185043335,4.69471788406372,0,0,0.0549778714776039,44.62890625
0,1,13.625157,23587660,405688,1778,0,0,220.312469482422,2048.359375,124.465942382813,8.22652435302734,3.82851600646973,11.6386890411377,-0.0549778714776039,-0.0549778714776039,0.00733038270846009,44.62890625
0,1,13.625157,23591382,405754,1764,0,0,220.4296875,2049.17944335938,124.478149414063,6.49412059783936,1.33998072147369,5.17806768417358,0.0232128798961639,0.0232128798961639,-0.0952949747443199,44.62890625
0,1,13.626145,23595154,405821,1762,0,0,220.390625,2048.5546875,124.484252929688,-1.24905347824097,-3.2973096370697,10.4231357574463,0.0464257597923279,0.0464257597923279,0.0464257597923279,44.765625
0,1,13.626145,23599122,405893,1786,0,0,220.195297241211,2048.43725585938,124.462890625,1.73718917369843,-1.54097783565521,12.2560377120972,-0.04764748737216,-0.04764748737216,0.0232128798961639,44.765625
0,1,13.626145,23603054,405966,1827,0,0,220.234359741211,2048.359375,124.453735351563,1.55054903030396,4.55114889144897,6.63769006729126,0.00733038270846009,0.00733038270846009,0.0390953756868839,44.765625
0,1,13.626145,23611825,406129,1857,0,0,220.234359741211,2048.359375,124.453735351563,-4.18743944168091,-3.21116805076599,4.98664236068726,0.0146607654169202,0.0146607654169202,0.0867428630590439,44.765625
0,1,13.626145,23618149,406244,1828,0,0,219.140625,2048.90600585938,124.484252929688,-10.3274230957031,0.985842943191528,12.1555395126343,-0.0940732434391975,-0.0940732434391975,0.149051114916801,44.86328125
0,1,13.626145,23622107,406314,1803,0,0,219.5703125,2048.1640625,124.453735351563,2.90010118484497,5.15413951873779,4.71864604949951,0.0842994004487991,0.0842994004487991,0.0940732434391975,44.86328125
0,1,13.626145,23626035,406384,1781,0,0,220.351547241211,2048.43725585938,124.47509765625,1.80897402763367,-3.4073793888092,10.8155584335327,-0.0623082555830479,-0.0623082555830479,0.101403623819351,44.86328125
0,1,13.626145,23630012,406453,1764,0,0,219.1796875,2048.59375,124.481201171875,-5.69013214111328,2.44546461105347,7.14975452423096,0.00733038270846009,0.00733038270846009,0.117286123335361,44.86328125
0,1,13.626145,23634038,406524,1753,0,0,219.140625,2048.59375,124.465942382813,2.86660146713257,0.564706087112427,9.05444145202637,-0.0390953756868839,-0.0390953756868839,0.0464257597923279,45.0234375
0,1,13.627145,23638001,406594,1756,0,0,220.234359741211,2048.75,124.472045898438,7.89152908325195,-2.32582354545593,6.95354318618774,0.0537561401724815,0.0537561401724815,0.0464257597923279,45.0234375
0,1,13.627145,23641916,406664,1773,0,0,219.140625,2048.75,124.481201171875,-1.77068877220154,-1.97168588638306,3.74237442016602,-0.00855211354792118,-0.00855211354792118,0.0708603635430336,45.0234375
0,1,13.627145,23645890,406736,1790,0,0,220.312469482422,2048.5546875,124.484252929688,3.55573463439941,-3.53659200668335,11.3419790267944,0.0464257597923279,0.0464257597923279,0.0305432621389627,45.0234375
0,1,13.627145,23649909,406807,1792,0,0,219.1796875,2048.7109375,124.478149414063,1.13419783115387,3.92422914505005,12.5766754150391,0,0,0.00733038270846009,45.0234375
0,1,13.627145,23653880,406878,1781,0,0,219.101547241211,2048.3203125,124.465942382813,-3.12024068832397,5.15413951873779,9.80578708648682,0.0305432621389627,0.0305432621389627,0.0464257597923279,45.09375
0,1,13.627145,23657802,406946,1766,0,0,220.351547241211,2048.90600585938,124.502563476563,-5.57049083709717,0.650847792625427,4.92442941665649,0.00733038270846009,0.00733038270846009,-0.01588249579072,45.09375
0,1,13.627145,23661760,407016,1762,0,0,219.101547241211,2048.28125,124.472045898438,-7.31246566772461,0.464207619428635,9.18365287780762,-0.00855211354792118,-0.00855211354792118,-0.0244346093386412,45.09375
0,1,13.627145,23665762,407089,1783,0,0,220.234359741211,2048.4765625,124.459838867188,-5.4221363067627,0.215354055166245,14.3473653793335,-0.04764748737216,-0.04764748737216,-0.0635299831628799,45.09375
0,1,13.627145,23669719,407163,1824,0,0,220.390625,2048.4765625,124.47509765625,1.29690992832184,4.45543575286865,4.29750919342041,-0.0232128798961639,-0.0232128798961639,-0.0794124826788902,45.09375
0,1,13.627145,23673625,407235,1854,0,0,219.101547241211,2048.6328125,124.478149414063,2.15832591056824,-1.46919298171997,2.08175563812256,0.0378736443817616,0.0378736443817616,0.0390953756868839,45.13671875
0,1,13.628156,23677594,407309,1859,0,0,219.140625,2048.67163085938,124.47509765625,-2.29232406616211,-4.99621391296387,9.78664493560791,0.0610865242779255,0.0610865242779255,0.0305432621389627,45.13671875
0,1,13.628156,23681599,407382,1844,0,0,220.234359741211,2048.2421875,124.456787109375,7.771888256073,1.93818628787994,12.0454692840576,0.0305432621389627,0.0305432621389627,0.0708603635430336,45.13671875
0,1,13.628156,23685548,407453,1822,0,0,217.9296875,2048.4765625,124.478149414063,-3.14895462989807,-0.923629522323608,13.0504550933838,-0.0623082555830479,-0.0623082555830479,0.101403623819351,45.13671875
0,1,13.628156,23689455,407523,1797,0,0,220.351547241211,2048.94506835938,124.4873046875,1.79940271377563,5.29770946502686,3.95772886276245,-0.0390953756868839,-0.0390953756868839,0.0940732434391975,45.13671875
0,1,13.628156,23693414,407593,1776,0,0,220.195297241211,2048.1640625,124.459838867188,1.48355007171631,-3.57009124755859,10.2699947357178,-0.0549778714776039,-0.0549778714776039,0.0623082555830479,45.25
0,1,13.628156,23697405,407662,1759,0,0,219.101547241211,2048.2421875,124.456787109375,-5.254638671875,0.545563519001007,10.4039936065674,0.0305432621389627,0.0305432621389627,0,45.25
0,1,13.628156,23701341,407731,1749,0,0,220.195297241211,2048.2421875,124.453735351563,-3.80937361717224,0.655633449554443,8.48494911193848,0.0232128798961639,0.0232128798961639,0.0708603635430336,45.25
0,1,13.628156,23705231,407799,1750,0,0,220.390625,2048.6328125,124.481201171875,4.4793643951416,0.057427741587162,8.25045204162598,0.0146607654169202,0.0146607654169202,-0.0879645943641663,45.25
0,1,13.628156,23709185,407870,1761,0,0,219.218734741211,2048.59375,124.481201171875,-0.234496623277664,-3.38823676109314,4.69950389862061,0.0928515195846558,0.0928515195846558,-0.040317103266716,45.25
0,1,13.629159,23713185,407941,1771,0,0,220.390625,2048.5546875,124.490356445313,3.84765863418579,-4.5894341468811,13.9692983627319,-0.01588249579072,-0.01588249579072,-0.102625355124474,45.34375
0,1,13.629159,23717117,408010,1770,0,0,220.195297241211,2048.59375,124.459838867188,-1.21555399894714,7.25503826141357,4.46979236602783,0.0146607654169202,0.0146607654169202,-0.0879645943641663,45.34375
0,1,13.629159,23721017,408078,1757,0,0,219.140625,2048.4765625,124.462890625,4.25922441482544,2.27796721458435,12.5479621887207,-0.03176499158144,-0.03176499158144,0.0464257597923279,45.34375
0,1,13.629159,23724970,408147,1743,0,0,220.2734375,2048.3984375,124.478149414063,-3.36909413337708,-0.129212439060211,6.36012268066406,-0.00855211354792118,-0.00855211354792118,0.0305432621389627,45.34375
0,1,13.629159,23734535,408317,1776,0,0,220.312469482422,2048.3984375,124.468994140625,-5.66620397567749,4.74736022949219,4.98664236068726,-0.0549778714776039,-0.0549778714776039,0.0549778714776039,45.4765625
0,1,13.629159,23738752,408394,1816,0,0,220.234359741211,2048.28125,124.459838867188,-6.58026218414307,-1.11505544185638,2.99102830886841,-0.01588249579072,-0.01588249579072,-0.00855211354792118,45.4765625
0,1,13.629159,23742670,408466,1837,0,0,219.1796875,2048.43725585938,124.484252929688,14.7685022354126,-2.13918328285217,12.8638143539429,0.107512280344963,0.107512280344963,-0.0244346093386412,45.4765625
0,1,13.629159,23746663,408539,1833,0,0,219.101547241211,2048.828125,124.484252929688,-12.9499559402466,-1.7850456237793,11.8636140823364,-0.00855211354792118,-0.00855211354792118,0.125838235020638,45.4765625
0,1,13.629159,23750692,408612,1815,0,0,219.062484741211,2048.359375,124.472045898438,-6.74776029586792,0.425922423601151,9.36072254180908,0.0146607654169202,0.0146607654169202,-0.0952949747443199,45.609375
0,1,13.629159,23754669,408682,1790,0,0,219.062484741211,2048.59375,124.468994140625,5.99641370773315,4.11565494537354,7.71924543380737,-0.04764748737216,-0.04764748737216,-0.11117747426033,45.609375
0,1,13.630151,23758590,408751,1766,0,0,220.2734375,2048.2421875,124.459838867188,-4.29272365570068,-1.43569374084473,10.7533445358276,0.0305432621389627,0.0305432621389627,0.180816113948822,45.609375
0,1,13.630151,23762572,408820,1748,0,0,220.390625,2048.359375,124.4873046875,4.08215570449829,0.0813559740781784,7.34117984771729,-0.0390953756868839,-0.0390953756868839,0.149051114916801,45.609375
0,1,13.630151,23766591,408889,1732,0,0,220.312469482422,2048.90600585938,124.484252929688,0.172283232212067,-0.751346230506897,10.2125663757324,-0.00855211354792118,-0.00855211354792118,0.0390953756868839,45.609375
0,1,13.630151,23770562,408958,1726,0,0,220.351547241211,2048.5546875,124.484252929688,-2.82831621170044,-1.46440744400024,0.894915699958801,0,0,-0.056199599057436,45.6640625
0,1,13.630151,23774486,409026,1735,0,0,220.195297241211,2048.20288085938,124.459838867188,0.248853549361229,-2.71824622154236,9.64307498931885,0.0696386322379112,0.0696386322379112,0.141720727086067,45.6640625
0,1,13.630151,23778475,409097,1754,0,0,219.0234375,2048.3984375,124.456787109375,6.08734083175659,-3.03888487815857,7.45124959945679,0.0464257597923279,0.0464257597923279,0.00733038270846009,45.6640625
0,1,13.630151,23782500,409168,1764,0,0,220.4296875,2048.6328125,124.484252929688,-2.86660146713257,0.985842943191528,17.6255340576172,0.257785111665726,0.257785111665726,0.101403623819351,45.6640625
0,1,13.630151,23786465,409237,1758,0,0,219.062484741211,2048.59375,124.481201171875,8.18345355987549,2.31146669387817,6.42233610153198,0.0610865242779255,0.0610865242779255,0.101403623819351,45.6640625
0,1,13.630151,23790261,409303,1744,0,0,220.312469482422,2048.5546875,124.456787109375,-16.6253318786621,4.04865598678589,9.16929626464844,-0.0232128798961639,-0.0232128798961639,-0.0879645943641663,45.72265625
0,1,13.631152,23793821,409364,1734,0,0,220.15625,2047.890625,124.459838867188,-6.7286171913147,0.306281298398972,8.55194854736328,-0.0390953756868839,-0.0390953756868839,0.00733038270846009,45.72265625
0,1,13.631152,23797727,409433,1737,0,0,220.234359741211,2048.3984375,124.462890625,5.37906551361084,-4.11086940765381,13.8975133895874,0.0232128798961639,0.0232128798961639,-0.040317103266716,45.72265625
0,1,13.631152,23801281,409497,1760,0,0,220.2734375,2048.3984375,124.481201171875,-10.346565246582,2.19182538986206,5.29770946502686,-0.0781907513737679,-0.0781907513737679,-0.0879645943641663,45.72265625
0,1,13.631152,23805072,409566,1798,0,0,220.351547241211,2048.7109375,124.484252929688,14.6488609313965,1.00498557090759,3.12981200218201,0.0464257597923279,0.0464257597923279,0.0232128798961639,45.72265625
0,1,13.631152,23808630,409631,1826,0,0,220.1171875,2047.890625,124.42626953125,12.7776727676392,-0.851844847202301,7.08754110336304,0.116064392030239,0.116064392030239,-0.0244346093386412,45.83203125
0,1,13.631152,23812528,409703,1834,0,0,220.2734375,2048.2421875,124.462890625,-4.77128839492798,-4.90050077438354,6.86740159988403,0.0537561401724815,0.0537561401724815,0.101403623819351,45.83203125
0,1,13.631152,23816081,409767,1822,0,0,220.15625,2048.3984375,124.462890625,6.75254535675049,3.63230466842651,11.4616203308105,-0.0549778714776039,-0.0549778714776039,0.0623082555830479,45.83203125
0,1,13.632159,23820123,409839,1798,0,0,219.1796875,2048.67163085938,124.481201171875,-5.36949396133423,-0.818345308303833,14.3473653793335,-0.117286123335361,-0.117286123335361,0.0623082555830479,45.83203125
0,1,13.632159,23823916,409905,1774,0,0,220.351547241211,2048.4765625,124.478149414063,0.478564500808716,4.03429889678955,6.34098052978516,-0.312763005495071,-0.312763005495071,0.0867428630590439,45.83203125
0,1,13.632159,23827657,409970,1753,0,0,220.2734375,2048.28125,124.4873046875,-0.866201817989349,-0.258424878120422,9.09751129150391,0,0,0.125838235020638,45.83203125
0,1,13.632159,23831347,410034,1736,0,0,220.195297241211,2048.5546875,124.468994140625,-3.39302253723145,-0.277567446231842,11.6291179656982,0.0232128798961639,0.0232128798961639,-0.0952949747443199,45.88671875
0,1,13.632159,23834994,410096,1722,0,0,220.15625,2048.125,124.462890625,7.94417142868042,2.08654141426086,9.82492923736572,-0.01588249579072,-0.01588249579072,-0.056199599057436,45.88671875
0,1,13.633162,23838801,410162,1716,0,0,220.351547241211,2048.90600585938,124.493408203125,-2.93360066413879,-2.10568380355835,1.89990127086639,0.00733038270846009,0.00733038270846009,-0.03176499158144,45.88671875
0,1,13.633162,23846171,410290,1734,0,0,220.2734375,2048.5546875,124.465942382813,3.68494701385498,-3.09631252288818,7.88674354553223,0.0769690200686455,0.0769690200686455,0.101403623819351,45.88671875
0,1,13.633162,23852015,410391,1740,0,0,219.140625,2048.1640625,124.465942382813,2.92402935028076,6.59940528869629,5.48434925079346,-0.01588249579072,-0.01588249579072,0.00733038270846009,46
0,1,13.633162,23857961,410493,1721,0,0,220.351547241211,2048.5546875,124.4873046875,-8.69073104858398,0.880558729171753,13.0504550933838,-0.00855211354792118,-0.00855211354792118,-0.04764748737216,46
0,1,13.633162,23862015,410562,1709,0,0,220.351547241211,2048.2421875,124.481201171875,-3.83808755874634,1.32083809375763,6.8386869430542,0.0305432621389627,0.0305432621389627,0.0305432621389627,46
0,1,13.633162,23866007,410631,1712,0,0,220.234359741211,2048.3203125,124.462890625,3.59880542755127,-1.97168588638306,10.8203449249268,-0.00855211354792118,-0.00855211354792118,0.0146607654169202,46
0,1,13.633162,23869941,410701,1738,0,0,220.234359741211,2048.3203125,124.456787109375,-3.8859441280365,1.34476637840271,9.16929626464844,-0.0232128798961639,-0.0232128798961639,0.0146607654169202,46.10546875
0,1,13.633162,23873839,410771,1776,0,0,220.234359741211,2048.3203125,124.465942382813,-6.16869688034058,1.60319113731384,2.56989169120789,0.0769690200686455,0.0769690200686455,-0.0244346093386412,46.10546875
0,1,13.634159,23877890,410845,1805,0,0,220.351547241211,2048.828125,124.484252929688,7.18803977966309,-2.6273193359375,9.03529739379883,0.0769690200686455,0.0769690200686455,-0.040317103266716,46.10546875
0,1,13.634159,23881903,410917,1808,0,0,220.2734375,2048.75,124.4873046875,-2.19182538986206,-0.507278382778168,5.89112949371338,0,0,-0.118507854640484,46.10546875
0,1,13.634159,23885841,410987,1792,0,0,220.234359741211,2048.3984375,124.462890625,0.0526420958340168,2.66560459136963,12.3996067047119,0.0696386322379112,0.0696386322379112,0.00733038270846009,46.10546875
0,1,13.634159,23889741,411055,1768,0,0,219.101547241211,2048.3203125,124.465942382813,5.40777921676636,0.875773072242737,8.48494911193848,0.00733038270846009,0.00733038270846009,-0.0244346093386412,46.20703125
0,1,13.634159,23893787,411125,1743,0,0,220.234359741211,2048.6328125,124.478149414063,-3.59880542755127,0.100498549640179,11.8971138000488,-0.0549778714776039,-0.0549778714776039,-0.00855211354792118,46.20703125
0,1,13.634159,23897776,411193,1723,0,0,220.2734375,2048.6328125,124.481201171875,5.70448923110962,-1.27776730060577,8.98744106292725,-0.0232128798961639,-0.0232128798961639,0,46.20703125
0,1,13.634159,23901713,411260,1705,0,0,220.2734375,2048.4765625,124.462890625,1.77547442913055,3.17766880989075,7.25982427597046,-0.00855211354792118,-0.00855211354792118,0.0464257597923279,46.20703125
0,1,13.634159,23905621,411326,1692,0,0,220.2734375,2048.28125,124.472045898438,5.44127893447876,-0.301495641469955,4.19701099395752,0,0,0.00733038270846009,46.20703125
0,1,13.634159,23912761,411448,1703,0,0,219.062484741211,2048.515625,124.468994140625,-0.430708110332489,-0.473778903484344,-0.985842943191528,0,0,-0.01588249579072,49.2265625
0,1,13.635152,23922075,411607,1715,0,0,219.101547241211,2048.3203125,124.468994140625,-0.78484582901001,4.12522602081299,3.67537546157837,0.0464257597923279,0.0464257597923279,-0.0244346093386412,49.2265625
0,1,13.635152,23926274,411679,1702,0,0,220.2734375,2048.0078125,124.456787109375,-6.23569583892822,1.48355007171631,7.90588617324829,0.00733038270846009,0.00733038270846009,0.00733038270846009,46.4921875
0,1,13.635152,23930146,411744,1689,0,0,220.351547241211,2048.59375,124.484252929688,-11.9210433959961,0.473778903484344,11.3084802627563,-0.0232128798961639,-0.0232128798961639,-0.01588249579072,46.4921875
0,1,13.635152,23934169,411812,1688,0,0,220.2734375,2048.94506835938,124.481201171875,3.29252409934998,-0.756132006645203,11.5956192016602,-0.0390953756868839,-0.0390953756868839,0.0867428630590439,46.4921875
0,1,13.635152,23938135,411881,1707,0,0,220.234359741211,2048.3984375,124.465942382813,1.00019991397858,-1.27776730060577,11.3180503845215,-0.03176499158144,-0.03176499158144,0,46.4921875
0,1,13.635152,23942042,411950,1744,0,0,220.2734375,2048.43725585938,124.468994140625,-11.0835542678833,2.4598217010498,0.636490821838379,0.0232128798961639,0.0232128798961639,-0.040317103266716,46.4921875
0,1,13.635152,23945913,412020,1779,0,0,220.2734375,2048.28125,124.462890625,12.6101760864258,1.59840548038483,7.37946510314941,0.193033412098885,0.193033412098885,-0.14294245839119,46.50390625
0,1,13.635152,23949934,412092,1791,0,0,220.195297241211,2048.0859375,124.459838867188,-9.64307498931885,-3.53659200668335,6.89132976531982,-0.0623082555830479,-0.0623082555830479,-0.0720821022987366,46.50390625
0,1,13.635152,23953901,412161,1779,0,0,220.195297241211,2048.125,124.462890625,2.35932302474976,1.8185453414917,12.2129669189453,0.100181899964809,0.100181899964809,-0.03176499158144,46.50390625
0,1,13.636162,23957820,412230,1756,0,0,219.218734741211,2048.515625,124.484252929688,5.67098951339722,-0.239282250404358,11.7487602233887,-0.101403623819351,-0.101403623819351,-0.0244346093386412,46.50390625
0,1,13.636162,23961680,412296,1732,0,0,220.195297241211,2048.28125,124.453735351563,-2.09132695198059,1.2825528383255,12.2560377120972,-0.0781907513737679,-0.0781907513737679,0.0623082555830479,46.50390625
0,1,13.636162,23965686,412364,1710,0,0,219.218734741211,2048.7890625,124.481201171875,3.42652201652527,1.82333087921143,6.8291163444519,0.0537561401724815,0.0537561401724815,0,46.59375
0,1,13.636162,23969645,412430,1690,0,0,219.101547241211,2048.75,124.47509765625,-1.23469650745392,0.224925339221954,8.50887680053711,-0.0623082555830479,-0.0623082555830479,-0.00855211354792118,46.59375
0,1,13.636162,23979085,412588,1671,0,0,219.101547241211,2048.0859375,124.444580078125,-3.70887517929077,-2.55074906349182,12.1698961257935,0.0232128798961639,0.0232128798961639,0.0146607654169202,46.59375
0,1,13.636162,23984392,412678,1695,0,0,219.101547241211,2048.4765625,124.481201171875,-2.344966173172,-3.54137754440308,11.6099758148193,0.0305432621389627,0.0305432621389627,0.0708603635430336,46.59375
0,1,13.636162,23988420,412747,1706,0,0,219.1796875,2048.59375,124.4873046875,1.29690992832184,3.21116805076599,11.1553392410278,0.00733038270846009,0.00733038270846009,-0.01588249579072,46.66015625
0,1,13.636162,23992382,412814,1702,0,0,219.140625,2048.359375,124.468994140625,-2.94795751571655,1.59840548038483,13.4093780517578,0.0232128798961639,0.0232128798961639,0.00733038270846009,46.66015625
0,1,13.636162,23996290,412880,1690,0,0,220.234359741211,2048.359375,124.459838867188,-10.4949197769165,3.57009124755859,4.70907497406006,-0.00855211354792118,-0.00855211354792118,-0.00855211354792118,46.66015625
0,1,13.636162,24000189,412945,1679,0,0,219.062484741211,2048.515625,124.468994140625,2.68474698066711,1.24426782131195,11.7248306274414,0.0378736443817616,0.0378736443817616,-0.0720821022987366,46.66015625
0,1,13.637163,24004244,413013,1677,0,0,219.7265625,2051.796875,124.642944335938,-11.854043006897,-1.2825528383255,11.1984100341797,-0.00855211354792118,-0.00855211354792118,-0.0794124826788902,46.703125
0,1,13.637163,24008244,413082,1698,0,0,220.9765625,2051.796875,124.649047851563,0.617348253726959,-0.411565512418747,10.6863460540771,-0.03176499158144,-0.03176499158144,-0.03176499158144,46.703125
0,1,13.637163,24012198,413153,1737,0,0,220.898422241211,2051.796875,124.652099609375,10.3513517379761,-0.617348253726959,4.03908491134644,0.0232128798961639,0.0232128798961639,-0.0720821022987366,46.703125
0,1,13.637163,24016103,413222,1769,0,0,220.898422241211,2051.5234375,124.6337890625,7.33160877227783,-0.899701356887817,5.18285417556763,0.0842994004487991,0.0842994004487991,-0.040317103266716,46.703125
0,1,13.637163,24020156,413294,1779,0,0,219.84375,2051.83569335938,124.639892578125,9.45164966583252,0.0430708080530167,9.10708332061768,0.00733038270846009,0.00733038270846009,-0.0794124826788902,46.703125
0,1,13.637163,24024151,413364,1766,0,0,219.7265625,2052.0703125,124.652099609375,-6.16391134262085,0.665204703807831,10.1024971008301,0.0305432621389627,0.0305432621389627,-0.0244346093386412,46.7578125
0,1,13.637163,24028091,413432,1743,0,0,219.84375,2052.2265625,124.652099609375,2.2109682559967,1.66061890125275,12.9978122711182,-0.298102229833603,-0.298102229833603,0.0940732434391975,46.7578125
0,1,13.637163,24032004,413498,1718,0,0,219.687484741211,2051.2109375,124.624633789063,0.258424878120422,1.75633192062378,9.35593605041504,0,0,-0.14294245839119,46.7578125
0,1,13.637163,24036056,413567,1696,0,0,219.7265625,2051.640625,124.6337890625,-4.4793643951416,-0.0765703245997429,6.75254535675049,-0.0390953756868839,-0.0390953756868839,0.0390953756868839,46.7578125
0,1,13.63816,24040048,413633,1678,0,0,221.054672241211,2052.03125,124.649047851563,-5.43170738220215,2.03389930725098,5.37906551361084,0.0232128798961639,0.0232128798961639,0.0390953756868839,46.7578125
0,1,13.63816,24043990,413698,1662,0,0,221.015609741211,2051.9921875,124.652099609375,-0.129212439060211,-1.30169558525085,15.5485610961914,0.296880483627319,0.296880483627319,-0.0244346093386412,46.87109375
0,1,13.63816,24047894,413763,1660,0,0,220.9765625,2051.796875,124.649047851563,2.34018063545227,-3.99122834205627,14.4622201919556,0.00733038270846009,0.00733038270846009,-0.0635299831628799,46.87109375
0,1,13.63816,24051951,413833,1683,0,0,219.687484741211,2051.87475585938,124.639892578125,3.64187622070313,2.45025038719177,0.349352121353149,0.0146607654169202,0.0146607654169202,-0.0879645943641663,46.87109375
0,1,13.63816,24055964,413902,1711,0,0,219.687484741211,2051.5234375,124.62158203125,-0.70348984003067,-4.88135862350464,12.1124687194824,0.0378736443817616,0.0378736443817616,-0.17470745742321,46.87109375
0,1,13.63816,24059777,413968,1721,0,0,218.554672241211,2051.7578125,124.64599609375,1.47397875785828,4.27836656570435,8.05424118041992,-0.0623082555830479,-0.0623082555830479,-0.040317103266716,46.87109375
0,1,13.63816,24063555,414032,1715,0,0,219.804672241211,2051.83569335938,124.655151367188,-4.13479804992676,2.54596328735352,11.4376935958862,-0.0390953756868839,-0.0390953756868839,0.133168622851372,46.9375
0,1,13.63816,24067476,414098,1703,0,0,220.898422241211,2051.5625,124.639892578125,1.71804666519165,2.0386848449707,9.06401252746582,0.0378736443817616,0.0378736443817616,-0.118507854640484,46.9375
0,1,13.63816,24071338,414164,1691,0,0,219.648422241211,2051.2890625,124.630737304688,-7.57089042663574,0.119641125202179,9.16451072692871,-0.298102229833603,-0.298102229833603,-0.11117747426033,46.9375
0,1,13.639163,24075154,414229,1693,0,0,220.937484741211,2051.9140625,124.658203125,6.40319395065308,-2.70388960838318,11.4616203308105,0.0146607654169202,0.0146607654169202,0.133168622851372,46.9375
0,1,13.639163,24078938,414295,1717,0,0,220.937484741211,2052.0703125,124.652099609375,0.622133910655975,0.78484582901001,12.4426774978638,-0.0232128798961639,-0.0232128798961639,-0.118507854640484,46.9375
0,1,13.639163,24082860,414365,1757,0,0,220.742172241211,2051.5234375,124.62158203125,15.9744834899902,1.7036896944046,1.68454706668854,-0.0940732434391975,-0.0940732434391975,-0.0244346093386412,46.9921875
0,1,13.639163,24086960,414439,1787,0,0,219.687484741211,2051.640625,124.630737304688,1.22512519359589,-0.880558729171753,5.05364179611206,0.0232128798961639,0.0232128798961639,-0.040317103266716,46.9921875
0,1,13.639163,24095422,414588,1770,0,0,219.687484741211,2051.40625,124.6337890625,-6.23091077804565,1.28733861446381,13.4668064117432,-0.04764748737216,-0.04764748737216,0.0390953756868839,46.9921875
0,1,13.639163,24101942,414700,1729,0,0,220.937484741211,2051.9140625,124.652099609375,2.06261301040649,3.16809725761414,5.27378129959106,-0.04764748737216,-0.04764748737216,-0.00855211354792118,46.9921875
0,1,13.639163,24105707,414764,1708,0,0,219.7265625,2052.34350585938,124.655151367188,-6.96311378479004,1.00498557090759,6.52762031555176,0,0,-0.241902634501457,47.08203125
0,1,13.639163,24109415,414826,1691,0,0,220.8203125,2051.60131835938,124.630737304688,1.93340075016022,0.382851630449295,12.9738845825195,0.0232128798961639,0.0232128798961639,-0.01588249579072,47.08203125
0,1,13.640163,24113077,414887,1676,0,0,220.898422241211,2052.0703125,124.658203125,-2.52682089805603,1.64147627353668,7.86281490325928,0.100181899964809,0.100181899964809,-0.03176499158144,47.08203125
0,1,13.640163,24116792,414949,1670,0,0,220.859375,2051.71875,124.642944335938,1.27298164367676,-4.77607440948486,7.39382219314575,-0.03176499158144,-0.03176499158144,-0.04764748737216,47.08203125
0,1,13.640163,24120553,415013,1683,0,0,219.648422241211,2050.2734375,124.591064453125,-3.23031044006348,-0.114855483174324,7.85802984237671,-0.282219737768173,-0.282219737768173,0.0232128798961639,47.08203125
0,1,13.640163,24124269,415078,1708,0,0,219.7265625,2051.6796875,124.6337890625,-0.875773072242737,-2.64167618751526,7.56131982803345,0.0146607654169202,0.0146607654169202,0.0305432621389627,47.91015625
0,1,13.640163,24128190,415146,1726,0,0,219.765609741211,2051.40625,124.642944335938,0.181854516267776,3.23031044006348,12.4331064224243,-0.04764748737216,-0.04764748737216,-0.0635299831628799,47.91015625
0,1,13.640163,24132161,415214,1725,0,0,219.804672241211,2051.796875,124.649047851563,-0.191425815224648,4.06779861450195,10.6672029495239,0.0464257597923279,0.0464257597923279,-0.056199599057436,47.91015625
0,1,13.640163,24136176,415282,1712,0,0,219.7265625,2052.10913085938,124.649047851563,-18.812370300293,2.08175563812256,7.35075092315674,0.0378736443817616,0.0378736443817616,-0.00855211354792118,47.91015625
0,1,13.640163,24140150,415349,1700,0,0,219.648422241211,2051.7578125,124.6337890625,9.7340030670166,1.06719887256622,8.44187927246094,0,0,0.0708603635430336,47.91015625
0,1,13.640163,24144069,415416,1697,0,0,219.609344482422,2051.60131835938,124.624633789063,-1.41655099391937,-0.100498549640179,13.811372756958,-0.0549778714776039,-0.0549778714776039,0.0390953756868839,47.2421875
0,1,13.641163,24148052,415486,1719,0,0,220.937484741211,2051.796875,124.639892578125,-2.42632222175598,-0.210568383336067,12.959527015686,-0.04764748737216,-0.04764748737216,-0.040317103266716,47.2421875
0,1,13.641163,24152071,415558,1760,0,0,219.804672241211,2052.1875,124.655151367188,3.55094885826111,0.622133910655975,-1.02412807941437,0.00733038270846009,0.00733038270846009,-0.01588249579072,47.2421875
0,1,13.641163,24156032,415629,1791,0,0,221.015609741211,2051.9140625,124.655151367188,-0.741775035858154,0.937986493110657,5.69970369338989,0.0769690200686455,0.0769690200686455,-0.15882496535778,47.2421875
0,1,13.641163,24159949,415699,1797,0,0,219.765609741211,2051.5234375,124.624633789063,-4.18743944168091,-3.52702045440674,9.38465023040771,0.100181899964809,0.100181899964809,-0.0244346093386412,47.2421875
0,1,13.641163,24163924,415770,1783,0,0,219.648422241211,2051.40625,124.6337890625,3.92901492118835,1.94297206401825,12.6149606704712,-0.0232128798961639,-0.0232128798961639,0.0549778714776039,47.26171875
0,1,13.641163,24167946,415840,1759,0,0,219.765609741211,2051.40625,124.630737304688,1.04327070713043,-0.244067922234535,13.5433769226074,-0.04764748737216,-0.04764748737216,-0.0635299831628799,47.26171875
0,1,13.641163,24171913,415908,1734,0,0,219.765609741211,2051.5625,124.636840820313,-4.73778867721558,3.40259408950806,5.58484792709351,0,0,-0.040317103266716,47.26171875
0,1,13.641163,24175834,415974,1712,0,0,220.8203125,2051.171875,124.6337890625,-0.82791668176651,0.985842943191528,7.06361293792725,-0.0390953756868839,-0.0390953756868839,0.0305432621389627,47.26171875
0,1,13.641163,24179810,416041,1693,0,0,219.804672241211,2051.87475585938,124.649047851563,-3.16331148147583,-0.660419046878815,8.78644561767578,0.0464257597923279,0.0464257597923279,-0.03176499158144,47.26171875
0,1,13.642154,24183843,416108,1677,0,0,220.859375,2051.6796875,124.652099609375,2.55553460121155,0.89012998342514,9.45164966583252,-0.03176499158144,-0.03176499158144,0.0549778714776039,47.37109375
0,1,13.642154,24187789,416175,1680,0,0,219.765609741211,2051.87475585938,124.661254882813,2.13918328285217,-4.00079965591431,12.3517503738403,0.0537561401724815,0.0537561401724815,-0.056199599057436,47.37109375
0,1,13.642154,24191695,416243,1709,0,0,219.609344482422,2051.40625,124.6337890625,-3.23988175392151,-1.30648124217987,1.93340075016022,0,0,-0.00855211354792118,47.37109375
0,1,13.642154,24195661,416313,1743,0,0,220.937484741211,2051.5234375,124.636840820313,1.52183520793915,-3.6562328338623,9.02572631835938,0.00733038270846009,0.00733038270846009,-0.0720821022987366,47.37109375
0,1,13.642154,24199663,416383,1755,0,0,219.7265625,2051.328125,124.630737304688,-0.57906311750412,5.98205661773682,8.34616565704346,0,0,-0.00855211354792118,47.37109375
0,1,13.642154,24203611,416452,1747,0,0,219.7265625,2051.87475585938,124.636840820313,-5.9198431968689,1.97647154331207,11.8301153182983,0.0769690200686455,0.0769690200686455,-0.056199599057436,47.46875
0,1,13.642154,24207513,416519,1734,0,0,219.804672241211,2051.796875,124.658203125,15.9122705459595,1.67019021511078,8.7242317199707,0.0378736443817616,0.0378736443817616,-0.00855211354792118,47.46875
0,1,13.642154,24216875,416683,1744,0,0,220.859375,2051.171875,124.615478515625,-4.88614416122437,-2.52682089805603,11.7726879119873,-0.0549778714776039,-0.0549778714776039,0.0305432621389627,47.46875
0,1,13.643149,24221280,416763,1789,0,0,219.804672241211,2051.9921875,124.649047851563,0.68434727191925,2.93838596343994,0.244067922234535,-0.0549778714776039,-0.0549778714776039,0.0623082555830479,47.5546875
0,1,13.643149,24225224,416835,1820,0,0,219.765609741211,2051.7578125,124.642944335938,-3.31645226478577,-1.32083809375763,4.69471788406372,-0.04764748737216,-0.04764748737216,-0.273667633533478,47.5546875
0,1,13.643149,24229110,416906,1825,0,0,219.765609741211,2052.1484375,124.652099609375,-7.20239591598511,-3.71366095542908,10.892128944397,0.100181899964809,0.100181899964809,-0.01588249579072,47.5546875
0,1,13.643149,24233058,416977,1810,0,0,218.554672241211,2051.640625,124.64599609375,6.48933553695679,1.30648124217987,12.294322013855,0.00733038270846009,0.00733038270846009,0.0549778714776039,47.5546875
0,1,13.643149,24237044,417047,1787,0,0,219.687484741211,2051.60131835938,124.639892578125,1.03369951248169,-2.69910407066345,13.7539443969727,-0.0390953756868839,-0.0390953756868839,-0.00855211354792118,47.5546875
0,1,13.643149,24240982,417116,1762,0,0,219.687484741211,2051.328125,124.624633789063,4.00558519363403,4.8670015335083,6.6185474395752,-0.0549778714776039,-0.0549778714776039,-0.0635299831628799,47.56640625
0,1,13.643149,24244873,417183,1740,0,0,219.804672241211,2052.03125,124.655151367188,-1.93340075016022,-0.918843865394592,8.01117038726807,-0.0232128798961639,-0.0232128798961639,-0.040317103266716,47.56640625
0,1,13.643149,24248826,417250,1721,0,0,219.8828125,2052.03125,124.661254882813,-3.84287333488464,-2.11525511741638,9.26022338867188,0.0146607654169202,0.0146607654169202,-0.040317103266716,47.56640625
0,1,13.643149,24252813,417318,1708,0,0,220.898422241211,2051.5625,124.636840820313,-5.63749027252197,0.229710966348648,9.38943576812744,0.00733038270846009,0.00733038270846009,0.0146607654169202,47.56640625
0,1,13.644149,24256775,417387,1712,0,0,219.7265625,2051.328125,124.62158203125,2.41675090789795,-3.431307554245,10.9686985015869,0.0305432621389627,0.0305432621389627,-0.01588249579072,47.56640625
0,1,13.644149,24260697,417456,1735,0,0,219.765609741211,2051.9921875,124.64599609375,3.87158679962158,-2.89531517028809,3.71844625473022,0.0378736443817616,0.0378736443817616,0.0146607654169202,47.65234375
0,1,13.644149,24264694,417527,1759,0,0,219.7265625,2051.640625,124.636840820313,2.3497519493103,-2.15832591056824,10.121639251709,-0.03176499158144,-0.03176499158144,0.0464257597923279,47.65234375
0,1,13.644149,24268728,417598,1766,0,0,218.515609741211,2051.40625,124.636840820313,3.5461630821228,7.05404090881348,7.08275508880615,0.0305432621389627,0.0305432621389627,0.0464257597923279,47.65234375
0,1,13.644149,24272692,417667,1756,0,0,219.804672241211,2052.1875,124.667358398438,0.416351169347763,1.66540467739105,13.5816612243652,0.0146607654169202,0.0146607654169202,0.0390953756868839,47.65234375
0,1,13.644149,24276615,417735,1742,0,0,219.84375,2052.1484375,124.661254882813,-12.9643135070801,2.14396929740906,6.34576559066772,0.0305432621389627,0.0305432621389627,0,47.65234375
0,1,13.644149,24280605,417804,1736,0,0,219.765609741211,2051.5625,124.6337890625,7.11146926879883,-0.89012998342514,10.2795667648315,-0.0549778714776039,-0.0549778714776039,0.0464257597923279,47.7109375
0,1,13.644149,24284633,417876,1752,0,0,220.859375,2051.640625,124.639892578125,-8.63330364227295,-3.34995174407959,13.8400859832764,0.00733038270846009,0.00733038270846009,0.0305432621389627,47.7109375
0,1,13.644149,24288602,417948,1791,0,0,219.804672241211,2051.83569335938,124.652099609375,5.87198686599731,5.89112949371338,1.45005059242249,-0.03176499158144,-0.03176499158144,0.0781907513737679,47.7109375
0,1,13.645155,24295241,418070,1837,0,0,219.648422241211,2051.36694335938,124.630737304688,-2.92881488800049,-1.82333087921143,11.1601247787476,0.0610865242779255,0.0610865242779255,-0.0244346093386412,47.7109375
0,1,13.645155,24299236,418143,1830,0,0,219.7265625,2051.796875,124.639892578125,8.27438068389893,-0.569491803646088,11.5956192016602,0.0146607654169202,0.0146607654169202,0.0146607654169202,47.765625
0,1,13.645155,24303257,418215,1811,0,0,219.7265625,2051.83569335938,124.639892578125,-9.97328472137451,0.0382851622998714,13.5003061294556,-0.04764748737216,-0.04764748737216,0.0232128798961639,47.765625
0,1,13.645155,24307221,418285,1786,0,0,219.7265625,2051.40625,124.630737304688,0.234496623277664,3.44087910652161,8.21216773986816,0.00733038270846009,0.00733038270846009,-0.04764748737216,47.765625
0,1,13.645155,24311164,418354,1762,0,0,219.7265625,2051.83569335938,124.6337890625,-1.72283244132996,-0.416351169347763,10.3513517379761,-0.0781907513737679,-0.0781907513737679,-0.040317103266716,47.765625
0,1,13.645155,24315162,418423,1742,0,0,219.609344482422,2052.421875,124.630737304688,3.03888487815857,-0.713061153888702,9.98764133453369,0.0305432621389627,0.0305432621389627,-0.0879645943641663,47.765625
0,1,13.645155,24319053,418490,1726,0,0,219.804672241211,2051.9921875,124.649047851563,-6.04905605316162,1.33998072147369,10.8586292266846,0.0232128798961639,0.0232128798961639,0.0305432621389627,47.859375
0,1,13.646155,24322604,418551,1718,0,0,220.898422241211,2052.1484375,124.664306640625,-6.45105028152466,-0.502492785453796,2.66081881523132,0.304210871458054,0.304210871458054,-0.0794124826788902,47.859375
0,1,13.646155,24326394,418617,1722,0,0,219.804672241211,2051.83569335938,124.649047851563,-2.70388960838318,-2.81395936012268,12.1507530212402,-0.01588249579072,-0.01588249579072,0.0708603635430336,47.859375
0,1,13.646155,24333258,418736,1740,0,0,219.687484741211,2051.4453125,124.630737304688,2.737389087677,-4.3214373588562,15.0699968338013,0.0146607654169202,0.0146607654169202,0.0305432621389627,47.859375
0,1,13.646155,24339635,418846,1731,0,0,218.632781982422,2051.87475585938,124.652099609375,5.35513734817505,3.60837650299072,11.6051902770996,0.00733038270846009,0.00733038270846009,-0.01588249579072,47.921875
0,1,13.646155,24343329,418909,1718,0,0,220.937484741211,2051.9140625,124.658203125,10.2508525848389,1.24426782131195,7.12103986740112,-0.0623082555830479,-0.0623082555830479,0.0940732434391975,47.921875
0,1,13.646155,24347120,418974,1708,0,0,219.648422241211,2051.71875,124.627685546875,-7.66660356521606,0.397208601236343,9.23151016235352,0.0378736443817616,0.0378736443817616,0.0549778714776039,47.921875
0,1,13.646155,24351300,419046,1716,0,0,219.687484741211,2051.6796875,124.636840820313,-1.27776730060577,-2.64167618751526,17.4819622039795,0,0,-0.040317103266716,47.921875
0,1,13.646155,24355048,419113,1745,0,0,220.9765625,2051.9140625,124.655151367188,-0.301495641469955,1.64626204967499,8.16909599304199,-0.04764748737216,-0.04764748737216,-0.11117747426033,47.921875
0,1,13.647148,24358736,419180,1781,0,0,219.7265625,2052.10913085938,124.64599609375,5.17806768417358,-1.33998072147369,2.47417879104614,0.0610865242779255,0.0610865242779255,0.0464257597923279,47.99609375
0,1,13.647148,24362378,419246,1806,0,0,219.7265625,2051.6796875,124.639892578125,8.36052227020264,-0.48813584446907,9.14058303833008,0.0610865242779255,0.0610865242779255,0.00733038270846009,47.99609375
0,1,13.647148,24366169,419314,1810,0,0,219.765609741211,2051.4453125,124.64599609375,-7.74796009063721,-2.73260354995728,7.09232616424561,0.0928515195846558,0.0928515195846558,-0.0720821022987366,47.99609375
0,1,13.647148,24369906,419381,1795,0,0,219.765609741211,2051.87475585938,124.655151367188,-3.37388014793396,1.68454706668854,12.1028966903687,-0.0549778714776039,-0.0549778714776039,0.0549778714776039,47.99609375
0,1,13.647148,24373587,419445,1773,0,0,218.632781982422,2051.4453125,124.636840820313,-2.2109682559967,-2.23489618301392,12.4474630355835,-0.00855211354792118,-0.00855211354792118,-0.00855211354792118,47.99609375
0,1,13.647148,24377239,419508,1750,0,0,219.648422241211,2051.7578125,124.655151367188,0.713061153888702,4.17308282852173,8.73380279541016,-0.0623082555830479,-0.0623082555830479,-0.00855211354792118,48.14453125
0,1,13.647148,24381037,419574,1728,0,0,219.687484741211,2051.171875,124.636840820313,2.54596328735352,0.535992324352264,6.08255529403687,-0.00855211354792118,-0.00855211354792118,-0.01588249579072,48.14453125
0,1,13.647148,24385026,419641,1708,0,0,218.554672241211,2051.6796875,124.636840820313,-9.58564758300781,-0.0430708080530167,12.9978122711182,-0.0232128798961639,-0.0232128798961639,0.00733038270846009,48.14453125
0,1,13.647148,24388959,419707,1693,0,0,219.804672241211,2051.71875,124.664306640625,-2.26361036300659,0.325423896312714,11.8875427246094,0.00733038270846009,0.00733038270846009,-0.04764748737216,48.14453125
0,1,13.648148,24392860,419774,1691,0,0,219.804672241211,2052.1875,124.664306640625,5.32163763046265,-3.72323203086853,11.9593267440796,0.0928515195846558,0.0928515195846558,-0.0794124826788902,48.14453125
0,1,13.648148,24396923,419844,1711,0,0,218.554672241211,2051.5625,124.636840820313,-3.73280358314514,1.07198464870453,1.37348020076752,0.0146607654169202,0.0146607654169202,-0.03176499158144,48.12890625
0,1,13.648148,24400923,419914,1735,0,0,219.765609741211,2051.6796875,124.64599609375,1.37826585769653,-4.03429889678955,10.1455678939819,0.0305432621389627,0.0305432621389627,-0.0720821022987366,48.12890625
0,1,13.648148,24404862,419983,1742,0,0,218.59375,2051.796875,124.661254882813,0.583848714828491,4.82393026351929,11.0644121170044,-0.00855211354792118,-0.00855211354792118,-0.03176499158144,48.12890625
0,1,13.648148,24408761,420050,1734,0,0,218.632781982422,2051.953125,124.649047851563,-12.5479621887207,3.44087910652161,12.1794672012329,0.0305432621389627,0.0305432621389627,0,48.12890625
0,1,13.648148,24412811,420119,1720,0,0,219.7265625,2051.9921875,124.661254882813,17.1804676055908,0.985842943191528,6.42233610153198,-0.00855211354792118,-0.00855211354792118,-0.056199599057436,48.12890625
0,1,13.648148,24416801,420187,1712,0,0,218.515609741211,2051.2890625,124.6337890625,-6.07776975631714,-0.832702338695526,14.4143629074097,0.0146607654169202,0.0146607654169202,-0.00855211354792118,48.1875
0,1,13.648148,24420741,420256,1723,0,0,220.937484741211,2052.03125,124.658203125,-7.67617511749268,-3.14895462989807,11.1361970901489,-0.0708603635430336,-0.0708603635430336,0.00733038270846009,48.1875
0,1,13.648148,24424649,420326,1760,0,0,219.687484741211,2051.36694335938,124.6337890625,1.71804666519165,2.86660146713257,3.78065991401672,-0.03176499158144,-0.03176499158144,0.0623082555830479,48.1875
0,1,13.648148,24428697,420400,1800,0,0,219.687484741211,2051.40625,124.630737304688,10.0594263076782,-0.277567446231842,5.93898630142212,-0.00855211354792118,-0.00855211354792118,-0.12705996632576,48.1875
0,1,13.649156,24432686,420473,1818,0,0,219.765609741211,2052.0703125,124.658203125,-10.0115699768066,-3.48394989967346,13.5433769226074,0.0610865242779255,0.0610865242779255,-0.0879645943641663,48.1875
0,1,13.649156,24436624,420543,1809,0,0,218.671859741211,2051.71875,124.655151367188,10.2460660934448,1.44047927856445,11.4568347930908,0.304210871458054,0.304210871458054,-0.0952949747443199,48.2109375
0,1,13.649156,24440539,420613,1789,0,0,219.804672241211,2051.9921875,124.652099609375,-8.48494911193848,-0.760917603969574,13.0743837356567,-0.04764748737216,-0.04764748737216,0.117286123335361,48.2109375
0,1,13.649156,24444580,420683,1763,0,0,219.804672241211,2052.10913085938,124.658203125,0.870987474918365,4.36450815200806,5.89591503143311,-0.01588249579072,-0.01588249579072,-0.0794124826788902,48.2109375
0,1,13.649156,24453895,420843,1713,0,0,219.531234741211,2051.0546875,124.606323242188,-1.33040940761566,-0.813559710979462,9.35593605041504,-0.0232128798961639,-0.0232128798961639,-0.166155353188515,48.2109375
0,1,13.649156,24458101,420914,1698,0,0,219.5703125,2051.4453125,124.6337890625,-8.22652435302734,-1.22512519359589,13.4189500808716,0.0305432621389627,0.0305432621389627,0.0549778714776039,48.296875
0,1,13.649156,24461983,420980,1698,0,0,219.7265625,2051.9921875,124.652099609375,2.84745907783508,-3.06759881973267,11.0165557861328,0.00733038270846009,0.00733038270846009,0.00733038270846009,48.296875
0,1,13.649156,24466014,421050,1719,0,0,218.554672241211,2051.796875,124.649047851563,-3.33559489250183,-0.636490821838379,-0.981057286262512,0.00733038270846009,0.00733038270846009,0.0708603635430336,48.296875
0,1,13.650156,24469986,421120,1742,0,0,219.7265625,2052.10913085938,124.658203125,-1.56969165802002,-3.54137754440308,11.854043006897,0.123394772410393,0.123394772410393,-0.04764748737216,48.296875
0,1,13.650156,24473912,421189,1749,0,0,218.710922241211,2052.03125,124.691772460938,-2.11525511741638,6.30269479751587,7.37946510314941,-0.298102229833603,-0.298102229833603,-0.01588249579072,48.3515625
0,1,13.650156,24477795,421256,1741,0,0,219.687484741211,2051.484375,124.6337890625,1.07198464870453,1.43090796470642,14.7397880554199,0,0,-0.00855211354792118,48.3515625
0,1,13.650156,24481822,421325,1726,0,0,219.84375,2051.640625,124.642944335938,-1.564906001091,0.961914658546448,8.7242317199707,0.00733038270846009,0.00733038270846009,0.00733038270846009,48.3515625
0,1,13.650156,24485782,421393,1719,0,0,218.4375,2051.6796875,124.639892578125,-3.12981200218201,1.36390888690948,8.858229637146,0.00733038270846009,0.00733038270846009,-0.056199599057436,48.3515625
0,1,13.650156,24489687,421461,1732,0,0,219.765609741211,2051.640625,124.639892578125,-0.234496623277664,-6.15912580490112,13.5481624603271,-0.03176499158144,-0.03176499158144,0.0781907513737679,48.3515625
0,1,13.650156,24493562,421532,1770,0,0,219.804672241211,2051.9140625,124.661254882813,-1.88075852394104,5.27378129959106,7.71924543380737,-0.0549778714776039,-0.0549778714776039,0.0464257597923279,48.453125
0,1,13.650156,24497587,421605,1810,0,0,219.765609741211,2051.5625,124.639892578125,-9.2793664932251,-3.48394989967346,4.06301307678223,0.0537561401724815,0.0537561401724815,0.101403623819351,48.453125
0,1,13.650156,24501548,421678,1825,0,0,219.687484741211,2051.328125,124.636840820313,13.2370948791504,-4.17786884307861,10.7054882049561,0,0,0.280998021364212,48.453125
0,1,13.651156,24505453,421748,1815,0,0,218.671859741211,2051.953125,124.661254882813,-2.08654141426086,0.253639191389084,10.9974126815796,-0.00855211354792118,-0.00855211354792118,-0.11117747426033,48.453125
0,1,13.651156,24509322,421817,1795,0,0,218.554672241211,2051.71875,124.661254882813,10.7916307449341,-0.459421932697296,11.4233350753784,-0.01588249579072,-0.01588249579072,-0.14294245839119,48.453125
0,1,13.651156,24513374,421888,1769,0,0,218.632781982422,2051.796875,124.658203125,-5.66141843795776,4.7234320640564,8.12602615356445,-0.0855211317539215,-0.0855211317539215,-0.01588249579072,48.50390625
0,1,13.651156,24517376,421957,1745,0,0,219.648422241211,2051.71875,124.642944335938,2.57946300506592,-0.507278382778168,11.2175540924072,0.0232128798961639,0.0232128798961639,-0.04764748737216,48.50390625
0,1,13.651156,24521319,422024,1725,0,0,219.804672241211,2052.34350585938,124.658203125,-2.62253379821777,0.48813584446907,8.12123966217041,-0.01588249579072,-0.01588249579072,-0.0952949747443199,48.50390625
0,1,13.651156,24525234,422091,1709,0,0,219.7265625,2051.6796875,124.64599609375,-2.74696040153503,1.21555399894714,11.8301153182983,-0.01588249579072,-0.01588249579072,0.00733038270846009,48.50390625
0,1,13.651156,24529286,422160,1700,0,0,219.84375,2051.9921875,124.673461914063,2.83788776397705,-1.67497587203979,0.722632467746735,0.0232128798961639,0.0232128798961639,-0.12705996632576,48.50390625
0,1,13.651156,24533281,422228,1705,0,0,219.804672241211,2051.5234375,124.642944335938,0.880558729171753,-2.24446773529053,8.2360954284668,0.0305432621389627,0.0305432621389627,-0.0794124826788902,48.58203125
0,1,13.651156,24537223,422296,1716,0,0,219.7265625,2051.7578125,124.64599609375,4.48893547058105,-2.53639197349548,12.2273235321045,-0.0390953756868839,-0.0390953756868839,-0.102625355124474,48.58203125
0,1,13.651156,24541136,422363,1720,0,0,218.671859741211,2051.87475585938,124.664306640625,1.7324036359787,4.77128839492798,10.3513517379761,-0.0549778714776039,-0.0549778714776039,-0.234572246670723,48.58203125
0,1,13.652166,24545187,422432,1713,0,0,218.671859741211,2051.6796875,124.658203125,0.966700375080109,2.19182538986206,7.81974458694458,0.0232128798961639,0.0232128798961639,-0.189368218183517,48.58203125
0,1,13.652166,24549180,422500,1699,0,0,219.648422241211,2051.6796875,124.64599609375,-5.98205661773682,-0.210568383336067,6.49890613555908,0.0146607654169202,0.0146607654169202,-0.0794124826788902,48.58203125
0,1,13.652166,24553120,422566,1688,0,0,218.515609741211,2051.640625,124.642944335938,10.1647100448608,1.16769742965698,10.4709920883179,-0.0390953756868839,-0.0390953756868839,-0.11117747426033,48.6015625
0,1,13.652166,24557023,422633,1692,0,0,219.921859741211,2051.9921875,124.691772460938,-5.85762977600098,-1.1198410987854,13.5290193557739,-0.0549778714776039,-0.0549778714776039,0.0940732434391975,48.6015625
0,1,13.652166,24561082,422704,1721,0,0,219.765609741211,2052.1484375,124.664306640625,-2.39282274246216,2.34018063545227,12.07896900177,-0.0232128798961639,-0.0232128798961639,-0.134390354156494,48.6015625
0,1,13.652166,24568512,422837,1785,0,0,219.687484741211,2051.7578125,124.639892578125,-3.68016123771667,-0.650847792625427,8.40837860107422,0.0769690200686455,0.0769690200686455,0.00733038270846009,48.6015625
0,1,13.652166,24574709,422947,1784,0,0,218.4375,2051.40625,124.62158203125,7.32203769683838,1.69411838054657,9.8536434173584,-0.0623082555830479,-0.0623082555830479,0.0549778714776039,48.7265625
0,1,13.652166,24578605,423015,1764,0,0,219.84375,2052.03125,124.658203125,3.91944336891174,-1.52662086486816,13.6630172729492,0.00733038270846009,0.00733038270846009,0.0464257597923279,48.7265625
0,1,13.653166,24582510,423082,1739,0,0,218.554672241211,2051.6796875,124.649047851563,-4.91964340209961,4.40279340744019,8.57109069824219,-0.0549778714776039,-0.0549778714776039,-0.0244346093386412,48.7265625
0,1,13.653166,24586357,423148,1716,0,0,219.765609741211,2051.796875,124.639892578125,-1.41655099391937,1.19162571430206,7.15932559967041,0.0232128798961639,0.0232128798961639,-0.102625355124474,48.7265625
0,1,13.653166,24590157,423212,1697,0,0,219.765609741211,2051.60131835938,124.64599609375,1.44047927856445,-1.48833572864532,9.72443199157715,0.00733038270846009,0.00733038270846009,0.0867428630590439,48.7265625
0,1,13.653166,24593924,423274,1679,0,0,219.687484741211,2051.40625,124.6337890625,-0.531206607818604,1.39262270927429,8.74816036224365,0.0378736443817616,0.0378736443817616,-0.01588249579072,48.71875
0,1,13.653166,24597829,423339,1667,0,0,219.648422241211,2051.328125,124.624633789063,3.28295254707336,-0.636490821838379,6.26919603347778,0.0842994004487991,0.0842994004487991,0.00733038270846009,48.71875
0,1,13.653166,24601679,423405,1675,0,0,218.554672241211,2051.328125,124.639892578125,-5.07756996154785,-1.51704955101013,9.7340030670166,0.0696386322379112,0.0696386322379112,0.0464257597923279,48.71875
0,1,13.653166,24605719,423474,1699,0,0,219.765609741211,2052.03125,124.661254882813,8.16909599304199,-1.91904377937317,8.48973560333252,0.0928515195846558,0.0928515195846558,-0.00855211354792118,48.71875
0,1,13.653166,24609428,423538,1716,0,0,219.648422241211,2051.7578125,124.636840820313,-7.10668325424194,-0.239282250404358,15.0029983520508,-0.03176499158144,-0.03176499158144,-0.040317103266716,48.71875
0,1,13.653166,24613194,423602,1717,0,0,218.59375,2051.5234375,124.639892578125,3.41695070266724,3.32123780250549,3.82373070716858,-0.01588249579072,-0.01588249579072,0.0708603635430336,48.71875
0,1,13.654166,24616890,423665,1708,0,0,219.8828125,2052.10913085938,124.652099609375,0.64127641916275,1.35433769226074,10.2891368865967,0.0378736443817616,0.0378736443817616,-0.040317103266716,48.71875
0,1,13.654166,24620540,423727,1696,0,0,219.687484741211,2051.5625,124.64599609375,11.499906539917,0.464207619428635,8.69551753997803,-0.0232128798961639,-0.0232128798961639,0.0623082555830479,48.71875
0,1,13.654166,24624246,423789,1690,0,0,218.554672241211,2051.5234375,124.642944335938,10.4279222488403,-0.708275496959686,10.6002054214478,0.0305432621389627,0.0305432621389627,0,48.71875
0,1,13.654166,24627996,423854,1700,0,0,221.015609741211,2052.34350585938,124.664306640625,-2.05782747268677,-1.76590323448181,8.59023380279541,-0.03176499158144,-0.03176499158144,0.0390953756868839,48.71875
0,1,13.654166,24631699,423920,1734,0,0,219.804672241211,2051.9140625,124.667358398438,4.9435715675354,2.12482643127441,5.12542629241943,-0.01588249579072,-0.01588249579072,0.0867428630590439,48.7890625
0,1,13.654166,24635355,423985,1771,0,0,219.765609741211,2051.953125,124.655151367188,8.7242317199707,-1.21555399894714,9.23151016235352,0.0537561401724815,0.0537561401724815,-0.0635299831628799,48.7890625
0,1,13.654166,24639313,424056,1795,0,0,218.59375,2051.328125,124.624633789063,-11.0117702484131,-2.09611248970032,5.32163763046265,0.100181899964809,0.100181899964809,-0.01588249579072,48.7890625
0,1,13.654166,24643317,424128,1791,0,0,218.515609741211,2051.5625,124.642944335938,9.21715259552002,1.53140652179718,9.78185844421387,0.0305432621389627,0.0305432621389627,-0.03176499158144,48.7890625
0,1,13.654166,24647266,424197,1771,0,0,218.515609741211,2052.1484375,124.658203125,-5.46042108535767,-0.531206607818604,13.1365966796875,-0.0390953756868839,-0.0390953756868839,0.0390953756868839,48.7890625
0,1,13.654166,24651173,424264,1747,0,0,218.632781982422,2051.9140625,124.676513671875,10.6193475723267,1.90468680858612,7.69053220748901,-0.0855211317539215,-0.0855211317539215,-0.01588249579072,48.84765625
0,1,13.655166,24655155,424332,1723,0,0,219.7265625,2051.640625,124.649047851563,-2.35932302474976,0.497707098722458,8.9587287902832,-0.0390953756868839,-0.0390953756868839,0.26511549949646,48.84765625
0,1,13.655166,24659164,424400,1702,0,0,218.515609741211,2051.5625,124.639892578125,1.53140652179718,-0.923629522323608,13.0600261688232,0.0464257597923279,0.0464257597923279,0.00733038270846009,48.84765625
0,1,13.655166,24663114,424466,1683,0,0,219.7265625,2052.1875,124.64599609375,-8.15473937988281,1.90468680858612,5.94377136230469,0.00733038270846009,0.00733038270846009,-0.0244346093386412,48.84765625
0,1,13.655166,24669755,424577,1669,0,0,219.84375,2052.0703125,124.667358398438,-1.56969165802002,-3.06759881973267,13.5529470443726,0,0,-0.0952949747443199,48.94921875
0,1,13.655166,24673714,424644,1681,0,0,218.515609741211,2051.640625,124.642944335938,3.59401988983154,-1.63190507888794,1.49790692329407,0.0610865242779255,0.0610865242779255,-0.0635299831628799,48.94921875
0,1,13.655166,24677726,424712,1695,0,0,219.687484741211,2051.328125,124.6337890625,1.33998072147369,-3.4648072719574,15.1465673446655,0.0232128798961639,0.0232128798961639,-0.166155353188515,48.94921875
0,1,13.655166,24681680,424779,1697,0,0,217.421859741211,2051.83569335938,124.655151367188,-2.43110799789429,4.39800834655762,3.7471604347229,-0.00855211354792118,-0.00855211354792118,-0.0635299831628799,48.94921875
0,1,13.655166,24690988,424935,1669,0,0,219.765609741211,2051.40625,124.636840820313,8.01117038726807,0.497707098722458,11.2175540924072,-0.00855211354792118,-0.00855211354792118,-0.00855211354792118,48.96875
0,1,13.656157,24695394,425008,1666,0,0,219.7265625,2051.4453125,124.642944335938,5.07756996154785,-0.0861416161060333,12.1363964080811,0.0610865242779255,0.0610865242779255,-0.03176499158144,48.96875
0,1,13.656157,24699422,425077,1685,0,0,220.234359741211,2053.4375,124.758911132813,-7.80060195922852,-0.966700375080109,11.9928274154663,-0.00855211354792118,-0.00855211354792118,-0.056199599057436,48.96875
0,1,13.656157,24703382,425147,1723,0,0,219.8828125,2052.0703125,124.664306640625,-9.26022338867188,1.30169558525085,1.49790692329407,0,0,-0.0635299831628799,48.96875
0,1,13.656157,24707289,425216,1757,0,0,219.7265625,2051.7578125,124.642944335938,13.5529470443726,1.81375956535339,6.10169792175293,0.0696386322379112,0.0696386322379112,-0.150272846221924,48.96875
0,1,13.656157,24711247,425286,1769,0,0,218.59375,2051.71875,124.6337890625,-9.58564758300781,-1.15334057807922,7.57089042663574,0.0610865242779255,0.0610865242779255,0.0708603635430336,49.3046875
0,1,13.656157,24715249,425356,1758,0,0,218.632781982422,2052.03125,124.661254882813,6.21655321121216,1.05762755870819,12.8542442321777,0.250454753637314,0.250454753637314,-0.11117747426033,49.3046875
0,1,13.656157,24719194,425423,1736,0,0,218.632781982422,2051.7578125,124.661254882813,0.67956155538559,-1.27298164367676,14.2468662261963,-0.0232128798961639,-0.0232128798961639,0.0390953756868839,49.3046875
0,1,13.656157,24723096,425489,1711,0,0,219.765609741211,2051.71875,124.655151367188,3.72801780700684,2.64167618751526,8.75294494628906,-0.0708603635430336,-0.0708603635430336,0.0623082555830479,49.3046875
0,1,13.656157,24727057,425556,1688,0,0,219.7265625,2051.640625,124.6337890625,-6.66161870956421,1.25862467288971,5.19242477416992,-0.0232128798961639,-0.0232128798961639,-0.040317103266716,49.3046875
0,1,13.657164,24731065,425622,1668,0,0,218.554672241211,2052.9296875,124.655151367188,-2.82353067398071,1.89511561393738,9.60478973388672,0.0537561401724815,0.0537561401724815,0.0305432621389627,49.56640625
0,1,13.657164,24735014,425687,1650,0,0,219.7265625,2051.83569335938,124.64599609375,-3.02931356430054,-0.928415238857269,13.8831567764282,0.0232128798961639,0.0232128798961639,0.0940732434391975,49.56640625
0,1,13.657164,24738900,425751,1644,0,0,219.687484741211,2051.6796875,124.642944335938,5.63270425796509,-3.34516596794128,10.5284185409546,-0.01588249579072,-0.01588249579072,-0.040317103266716,49.56640625
0,1,13.657164,24742863,425818,1660,0,0,218.554672241211,2051.5234375,124.6337890625,1.77547442913055,-0.416351169347763,-0.354137748479843,0.0146607654169202,0.0146607654169202,-0.056199599057436,49.56640625
0,1,13.657164,24746848,425886,1688,0,0,219.8828125,2051.953125,124.661254882813,4.59421968460083,-3.54137754440308,9.4995059967041,0,0,-0.0244346093386412,49.56640625
0,1,13.657164,24750783,425953,1702,0,0,218.632781982422,2051.7578125,124.661254882813,0.914058208465576,4.10608386993408,12.2703952789307,0.0378736443817616,0.0378736443817616,-0.056199599057436,49.17578125
0,1,13.658158,24754673,426018,1698,0,0,218.554672241211,2051.87475585938,124.655151367188,-6.8721866607666,0.894915699958801,12.844672203064,0.0696386322379112,0.0696386322379112,-0.0635299831628799,49.17578125
0,1,13.658158,24758624,426085,1687,0,0,219.7265625,2051.5625,124.649047851563,17.7021007537842,1.05762755870819,8.13081169128418,-0.0232128798961639,-0.0232128798961639,0,49.17578125
0,1,13.658158,24762610,426151,1675,0,0,218.554672241211,2052.0703125,124.64599609375,-14.4239358901978,1.17726874351501,8.38444995880127,0.00733038270846009,0.00733038270846009,-0.312763005495071,49.17578125
0,1,13.658158,24766541,426217,1674,0,0,218.554672241211,2051.7578125,124.639892578125,1.79940271377563,-2.81395936012268,13.8400859832764,-0.04764748737216,-0.04764748737216,0.0464257597923279,49.17578125
0,1,13.658158,24770459,426285,1696,0,0,219.7265625,2051.7578125,124.636840820313,-0.842273533344269,-0.966700375080109,13.3040933609009,0.00733038270846009,0.00733038270846009,0.0146607654169202,49.203125
0,1,13.658158,24774452,426356,1738,0,0,219.7265625,2052.03125,124.664306640625,9.05922698974609,3.60359072685242,-0.119641125202179,-0.0390953756868839,-0.0390953756868839,-0.01588249579072,49.203125
0,1,13.658158,24778474,426427,1770,0,0,219.84375,2052.03125,124.661254882813,-1.36390888690948,2.69910407066345,5.88634395599365,0.0928515195846558,0.0928515195846558,-0.0635299831628799,49.203125
0,1,13.658158,24782436,426498,1777,0,0,219.687484741211,2051.2890625,124.6337890625,5.35992288589478,-3.61794805526733,11.0356979370117,-0.00855211354792118,-0.00855211354792118,0.0232128798961639,49.203125
0,1,13.659151,24786370,426566,1763,0,0,218.59375,2051.60131835938,124.642944335938,-0.0861416161060333,0.617348253726959,11.8971138000488,-0.0390953756868839,-0.0390953756868839,-0.04764748737216,49.203125
0,1,13.659151,24790358,426635,1739,0,0,219.7265625,2051.60131835938,124.636840820313,-0.708275496959686,-0.971486032009125,12.7728872299194,-0.0232128798961639,-0.0232128798961639,0.0623082555830479,49.23828125
0,1,13.659151,24794383,426703,1713,0,0,218.632781982422,2052.2265625,124.667358398438,6.55633401870728,2.56989169120789,9.24108123779297,-0.108734011650085,-0.108734011650085,-0.11117747426033,49.23828125
0,1,13.659151,24798353,426770,1691,0,0,218.632781982422,2051.60131835938,124.655151367188,-2.11525511741638,0.82791668176651,7.0731840133667,-0.00855211354792118,-0.00855211354792118,-0.04764748737216,49.23828125
0,1,13.659151,24805709,426891,1654,0,0,219.765609741211,2051.6796875,124.655151367188,4.48414993286133,-0.985842943191528,12.4283208847046,0,0,0.296880483627319,49.23828125
0,1,13.659151,24812081,426998,1665,0,0,219.8828125,2052.1875,124.67041015625,-4.26401042938232,-4.01037073135376,7.4943208694458,0.0378736443817616,0.0378736443817616,-0.040317103266716,49.2734375
0,1,13.659151,24816229,427070,1706,0,0,219.804672241211,2052.0703125,124.655151367188,-0.392422914505005,-0.775274515151978,7.91067171096802,0.0842994004487991,0.0842994004487991,-0.04764748737216,49.2734375
0,1,13.659151,24820181,427139,1734,0,0,218.515609741211,2051.484375,124.636840820313,-6.7621169090271,3.0149564743042,11.5860471725464,0.0146607654169202,0.0146607654169202,-0.03176499158144,49.2734375
0,1,13.660151,24824096,427206,1736,0,0,218.671859741211,2051.87475585938,124.667358398438,3.30209517478943,2.83310198783875,10.0498552322388,0.0464257597923279,0.0464257597923279,-0.0635299831628799,49.2734375
0,1,13.660151,24828090,427275,1726,0,0,219.804672241211,2052.2265625,124.661254882813,1.76111745834351,2.58903384208679,7.88674354553223,0.00733038270846009,0.00733038270846009,-0.118507854640484,49.31640625
0,1,13.660151,24832097,427343,1713,0,0,219.804672241211,2051.9140625,124.655151367188,-13.945369720459,0.727418065071106,12.4187488555908,-0.0232128798961639,-0.0232128798961639,-0.056199599057436,49.31640625
0,1,13.660151,24835638,427404,1709,0,0,218.515609741211,2051.83569335938,124.649047851563,3.68016123771667,0.358923435211182,11.3132648468018,-0.0708603635430336,-0.0708603635430336,-0.0244346093386412,49.31640625
0,1,13.660151,24839414,427470,1724,0,0,219.765609741211,2051.640625,124.642944335938,-0.942772150039673,-1.76590323448181,11.8157587051392,-0.117286123335361,-0.117286123335361,0.0708603635430336,49.31640625
0,1,13.660151,24842960,427534,1759,0,0,219.84375,2052.2265625,124.667358398438,6.19262504577637,3.8859441280365,1.57447731494904,-0.0390953756868839,-0.0390953756868839,-0.0244346093386412,49.31640625
0,1,13.660151,24846841,427604,1797,0,0,218.515609741211,2051.60131835938,124.652099609375,-5.9533429145813,0.914058208465576,6.19741058349609,-0.01588249579072,-0.01588249579072,-0.12705996632576,49.32421875
0,1,13.660151,24850382,427669,1813,0,0,219.687484741211,2051.640625,124.649047851563,-11.8253297805786,-2.53160643577576,11.2366952896118,0.0610865242779255,0.0610865242779255,-0.14294245839119,49.32421875
0,1,13.660151,24854161,427736,1806,0,0,218.632781982422,2051.9921875,124.661254882813,2.31146669387817,-1.63190507888794,12.2129669189453,0.0610865242779255,0.0610865242779255,0.296880483627319,49.32421875
0,1,13.661152,24857701,427799,1789,0,0,218.554672241211,2052.1875,124.658203125,3.72323203086853,-0.780060172080994,12.6149606704712,-0.0232128798961639,-0.0232128798961639,0.149051114916801,49.32421875
0,1,13.661152,24864502,427917,1745,0,0,219.7265625,2051.71875,124.639892578125,-0.76570326089859,2.8761727809906,8.08295440673828,0.00733038270846009,0.00733038270846009,0.0390953756868839,49.32421875
0,1,13.661152,24868096,427978,1725,0,0,219.7265625,2051.5234375,124.649047851563,-5.58963394165039,1.35433769226074,6.34098052978516,-0.266337245702744,-0.266337245702744,0.0390953756868839,49.94921875
0,1,13.661152,24871861,428042,1705,0,0,218.632781982422,2052.81225585938,124.649047851563,4.09172677993774,-2.99102830886841,10.9830560684204,0,0,-0.0794124826788902,49.94921875
0,1,13.661152,24875576,428104,1689,0,0,219.84375,2051.9140625,124.658203125,-3.0484561920166,-0.808774054050446,4.49372053146362,0,0,0.0855211317539215,49.94921875
0,1,13.661152,24879227,428167,1692,0,0,219.648422241211,2051.5625,124.639892578125,7.43210744857788,-5.16849660873413,12.4474630355835,0,0,0.26511549949646,49.94921875
0,1,13.662159,24882839,428230,1719,0,0,218.554672241211,2051.36694335938,124.639892578125,-1.60797679424286,-2.86181592941284,3.28773856163025,0.0232128798961639,0.0232128798961639,0.00733038270846009,49.94921875
0,1,13.662159,24886603,428298,1757,0,0,219.765609741211,2051.40625,124.636840820313,4.8670015335083,-2.42153668403625,8.60458946228027,0.0537561401724815,0.0537561401724815,0.0146607654169202,49.453125
0,1,13.662159,24890310,428364,1777,0,0,218.59375,2051.640625,124.661254882813,1.83290219306946,4.84307336807251,11.1361970901489,0.0232128798961639,0.0232128798961639,-0.0244346093386412,49.453125
0,1,13.662159,24893965,428428,1775,0,0,219.84375,2052.1484375,124.661254882813,-1.44526493549347,3.26859593391418,13.505090713501,0,0,-0.0244346093386412,49.453125
0,1,13.662159,24897838,428496,1763,0,0,219.648422241211,2051.9140625,124.64599609375,-8.03988456726074,4.4458646774292,6.79083061218262,0,0,0.101403623819351,49.453125
0,1,13.662159,24901859,428566,1751,0,0,219.765609741211,2051.83569335938,124.658203125,-9.27458095550537,-1.05284190177917,12.8207445144653,0,0,0.0146607654169202,49.453125
0,1,13.662159,24905816,428636,1752,0,0,219.609344482422,2052.5390625,124.6337890625,-0.492921471595764,-2.04825615882874,10.3944215774536,-0.01588249579072,-0.01588249579072,0.0146607654169202,49.48828125
0,1,13.662159,24909735,428707,1779,0,0,220.859375,2051.83569335938,124.64599609375,-2.00039982795715,0.574277460575104,9.29372310638428,-0.0232128798961639,-0.0232128798961639,-0.03176499158144,49.48828125
0,1,13.662159,24913602,428779,1819,0,0,219.804672241211,2051.796875,124.667358398438,7.83888673782349,1.58404862880707,2.47896409034729,0.0378736443817616,0.0378736443817616,-0.00855211354792118,49.48828125
0,1,13.663151,24924361,428976,1834,0,0,219.765609741211,2052.2265625,124.667358398438,12.0167560577393,-0.315852612257004,14.5148620605469,0.0146607654169202,0.0146607654169202,0.0232128798961639,49.5
0,1,13.663151,24928462,429050,1811,0,0,219.804672241211,2051.83569335938,124.667358398438,7.36032247543335,-2.49332118034363,14.5052909851074,-0.00855211354792118,-0.00855211354792118,0.101403623819351,49.5
0,1,13.663151,24932366,429119,1786,0,0,220.898422241211,2051.40625,124.642944335938,1.88075852394104,3.48394989967346,6.50847768783569,-0.01588249579072,-0.01588249579072,0.0146607654169202,49.5
0,1,13.663151,24936229,429186,1764,0,0,220.937484741211,2052.03125,124.664306640625,-3.97687125205994,-1.24426782131195,9.82971477508545,0.00733038270846009,0.00733038270846009,-0.056199599057436,49.5
0,1,13.663151,24940246,429256,1744,0,0,220.898422241211,2051.71875,124.649047851563,1.48355007171631,-1.54097783565521,10.2987089157104,-0.03176499158144,-0.03176499158144,-0.056199599057436,49.5
0,1,13.663151,24944202,429324,1733,0,0,219.609344482422,2051.87475585938,124.652099609375,-1.77547442913055,0.808774054050446,4.35972261428833,0,0,0,49.53125
0,1,13.663151,24948111,429393,1740,0,0,220.937484741211,2052.10913085938,124.661254882813,1.564906001091,-5.89112949371338,11.1792678833008,0.0696386322379112,0.0696386322379112,-0.01588249579072,49.53125
0,1,13.663151,24951992,429463,1768,0,0,219.765609741211,2052.03125,124.664306640625,1.07198464870453,-2.04347062110901,4.11086940765381,0.0610865242779255,0.0610865242779255,0.0146607654169202,49.53125
0,1,13.663151,24956011,429535,1794,0,0,220.937484741211,2051.6796875,124.64599609375,1.48355007171631,-3.14895462989807,9.66221809387207,0.0305432621389627,0.0305432621389627,0.00733038270846009,49.53125
0,1,13.664159,24959967,429606,1800,0,0,219.687484741211,2051.87475585938,124.658203125,8.9108715057373,5.79063034057617,8.6572322845459,-0.01588249579072,-0.01588249579072,-0.00855211354792118,49.53125
0,1,13.664159,24963854,429675,1789,0,0,219.765609741211,2052.03125,124.673461914063,-5.75713157653809,5.23549604415894,12.4666051864624,0.0146607654169202,0.0146607654169202,0.0232128798961639,49.546875
0,1,13.664159,24967708,429743,1776,0,0,219.84375,2052.03125,124.664306640625,6.45105028152466,-0.244067922234535,8.1020975112915,0.0232128798961639,0.0232128798961639,-0.03176499158144,49.546875
0,1,13.664159,24971713,429814,1771,0,0,219.804672241211,2051.9921875,124.667358398438,-2.61296248435974,-1.06241321563721,8.7242317199707,-0.00855211354792118,-0.00855211354792118,-0.01588249579072,49.546875
0,1,13.664159,24975657,429886,1790,0,0,220.898422241211,2051.953125,124.664306640625,2.38325142860413,-0.775274515151978,13.1940240859985,-0.0549778714776039,-0.0549778714776039,-0.0867428630590439,49.546875
0,1,13.664159,24979544,429959,1827,0,0,221.015609741211,2051.87475585938,124.667358398438,8.04945468902588,4.13958311080933,0.780060172080994,-0.00855211354792118,-0.00855211354792118,0.0232128798961639,49.546875
0,1,13.664159,24983395,430031,1859,0,0,219.765609741211,2051.83569335938,124.658203125,-16.2281227111816,1.83290219306946,4.60857629776001,0.100181899964809,0.100181899964809,0,49.546875
0,1,13.664159,24987400,430105,1868,0,0,221.054672241211,2051.953125,124.667358398438,-0.215354055166245,-4.86221599578857,9.8536434173584,0.0610865242779255,0.0610865242779255,0.0232128798961639,49.546875
0,1,13.664159,24991354,430178,1857,0,0,219.804672241211,2052.10913085938,124.673461914063,6.4175500869751,-0.59820568561554,14.0410833358765,-0.03176499158144,-0.03176499158144,0.0305432621389627,49.546875
0,1,13.665159,24995258,430249,1834,0,0,219.5703125,2050.9375,124.606323242188,-9.93978500366211,1.14376926422119,12.5240345001221,-0.0232128798961639,-0.0232128798961639,0.0549778714776039,49.546875
0,1,13.665159,24999093,430318,1810,0,0,219.765609741211,2051.7578125,124.652099609375,2.28753852844238,4.61814785003662,9.48036289215088,-0.03176499158144,-0.03176499158144,0,49.546875
0,1,13.665159,25003080,430388,1787,0,0,220.898422241211,2051.5625,124.642944335938,3.71844625473022,-1.27298164367676,8.4227352142334,-0.0390953756868839,-0.0390953756868839,-0.0952949747443199,49.6484375
0,1,13.665159,25007007,430457,1769,0,0,219.1796875,2048.67163085938,124.496459960938,-6.52762031555176,-2.38325142860413,10.6576318740845,0.0537561401724815,0.0537561401724815,0.0305432621389627,49.6484375
0,1,13.665159,25010882,430525,1758,0,0,220.351547241211,2048.94506835938,124.505615234375,-0.478564500808716,1.54576349258423,5.91505765914917,0.0537561401724815,0.0537561401724815,0.0855211317539215,49.6484375
0,1,13.665159,25014727,430593,1759,0,0,220.312469482422,2048.5546875,124.493408203125,4.16351127624512,-2.66081881523132,12.2656097412109,0.0769690200686455,0.0769690200686455,-0.150272846221924,49.6484375
0,1,13.665159,25018718,430665,1773,0,0,219.296875,2048.59375,124.502563476563,-3.72323203086853,-2.05304193496704,4.24486780166626,0.0305432621389627,0.0305432621389627,-0.14294245839119,49.6484375
0,1,13.665159,25022650,430735,1785,0,0,220.468734741211,2049.0625,124.508666992188,7.04925584793091,-4.98664236068726,12.5048913955688,0.0378736443817616,0.0378736443817616,-0.11117747426033,49.66796875
0,1,13.665159,25026558,430805,1786,0,0,219.140625,2048.67163085938,124.505615234375,-0.961914658546448,4.33579444885254,9.71007442474365,-0.0390953756868839,-0.0390953756868839,0,49.66796875
0,1,13.666169,25030427,430873,1775,0,0,219.1796875,2048.90600585938,124.502563476563,-4.19701099395752,5.57049083709717,9.00179862976074,0.0464257597923279,0.0464257597923279,0.0464257597923279,49.66796875
0,1,13.666169,25038826,431020,1757,0,0,219.218734741211,2048.5546875,124.4873046875,-0.502492785453796,-2.82353067398071,11.0883407592773,0.250454753637314,0.250454753637314,0.0305432621389627,49.66796875
0,1,13.666169,25047596,431181,1827,0,0,220.195297241211,2048.359375,124.484252929688,11.3850507736206,3.3547375202179,5.46042108535767,0.0305432621389627,0.0305432621389627,0.133168622851372,49.7265625
0,1,13.666169,25051502,431254,1852,0,0,220.351547241211,2048.984375,124.505615234375,3.0149564743042,-0.267996162176132,8.59980487823486,0.0928515195846558,0.0928515195846558,0.101403623819351,49.7265625
0,1,13.666169,25055369,431325,1852,0,0,220.390625,2048.75,124.49951171875,4.69950389862061,-4.28315305709839,3.94337177276611,0.0232128798961639,0.0232128798961639,-0.12705996632576,49.7265625
0,1,13.666169,25059386,431398,1836,0,0,219.140625,2048.67163085938,124.490356445313,13.0408840179443,3.6370906829834,12.9690990447998,-0.0390953756868839,-0.0390953756868839,-0.134390354156494,49.7265625
0,1,13.666169,25063347,431469,1812,0,0,219.218734741211,2048.75,124.502563476563,-2.89052987098694,-0.617348253726959,10.9639139175415,-0.04764748737216,-0.04764748737216,-0.11117747426033,49.74609375
0,1,13.666169,25067256,431538,1788,0,0,220.351547241211,2048.59375,124.496459960938,-2.04347062110901,1.65583336353302,8.93001461029053,-0.289550095796585,-0.289550095796585,-0.0720821022987366,49.74609375
0,1,13.666169,25071126,431606,1767,0,0,219.218734741211,2048.90600585938,124.508666992188,-1.40697968006134,-1.83768773078918,11.3898363113403,-0.0390953756868839,-0.0390953756868839,0.133168622851372,49.74609375
0,1,13.667167,25075143,431676,1751,0,0,219.1796875,2048.67163085938,124.505615234375,2.66560459136963,-2.09611248970032,11.112268447876,0,0,0.141720727086067,49.74609375
0,1,13.667167,25079104,431745,1744,0,0,220.351547241211,2048.59375,124.49951171875,-4.74257469177246,-0.339780777692795,2.83310198783875,0.0232128798961639,0.0232128798961639,0.0708603635430336,49.74609375
0,1,13.667167,25083024,431815,1756,0,0,220.078109741211,2047.69519042969,124.462890625,3.68494701385498,-4.31665182113647,16.4482612609863,0.0464257597923279,0.0464257597923279,0.172263994812965,49.70703125
0,1,13.667167,25086900,431885,1782,0,0,220.15625,2048.515625,124.47509765625,-1.09591269493103,-0.550349175930023,4.24965286254883,0.0769690200686455,0.0769690200686455,-0.0720821022987366,49.70703125
0,1,13.667167,25090923,431958,1801,0,0,220.234359741211,2048.125,124.478149414063,1.34955203533173,-2.91924357414246,15.4480638504028,-0.00855211354792118,-0.00855211354792118,0.194255143404007,49.70703125
0,1,13.667167,25094753,432026,1799,0,0,219.1796875,2048.5546875,124.496459960938,8.23130989074707,4.87657260894775,7.02054166793823,-0.01588249579072,-0.01588249579072,-0.056199599057436,49.70703125
0,1,13.667167,25098524,432093,1786,0,0,219.218734741211,2048.90600585938,124.49951171875,10.8347015380859,5.10628318786621,10.5236349105835,-0.00855211354792118,-0.00855211354792118,0.0623082555830479,49.70703125
0,1,13.667167,25102268,432159,1773,0,0,220.390625,2048.6328125,124.49951171875,-4.00558519363403,-2.7661030292511,9.28415203094482,0.00733038270846009,0.00733038270846009,-0.14294245839119,49.74609375
0,1,13.668167,25106154,432228,1772,0,0,220.312469482422,2048.515625,124.490356445313,6.22612428665161,-1.37826585769653,7.97767066955566,-0.04764748737216,-0.04764748737216,0.180816113948822,49.74609375
0,1,13.668167,25109988,432298,1794,0,0,220.390625,2048.7109375,124.496459960938,-6.58026218414307,-0.291924357414246,10.2699947357178,-0.0390953756868839,-0.0390953756868839,-0.056199599057436,49.74609375
0,1,13.668167,25113768,432369,1833,0,0,220.351547241211,2048.984375,124.505615234375,15.6059894561768,2.80438852310181,1.37826585769653,0.0537561401724815,0.0537561401724815,0.0146607654169202,49.74609375
0,1,13.668167,25117512,432439,1861,0,0,219.140625,2048.7109375,124.496459960938,-9.98285675048828,-1.54097783565521,4.13958311080933,0.116064392030239,0.116064392030239,-0.182037845253944,49.74609375
0,1,13.668167,25121402,432511,1866,0,0,219.101547241211,2048.4765625,124.4873046875,1.89511561393738,-3.79501676559448,10.4853487014771,0.0146607654169202,0.0146607654169202,-0.0794124826788902,49.78125
0,1,13.668167,25125461,432586,1852,0,0,219.804672241211,2048.3203125,124.47509765625,11.0021982192993,1.8185453414917,14.8546438217163,0.0928515195846558,0.0928515195846558,-0.04764748737216,49.78125
0,1,13.668167,25129094,432652,1830,0,0,217.9296875,2048.28125,124.472045898438,5.58006238937378,1.72283244132996,13.1174545288086,-0.03176499158144,-0.03176499158144,0.0146607654169202,49.78125
0,1,13.668167,25132788,432718,1807,0,0,220.312469482422,2048.359375,124.484252929688,-3.61316204071045,3.84765863418579,7.92024326324463,0,0,0.0855211317539215,49.78125
0,1,13.668167,25136522,432784,1786,0,0,220.390625,2048.90600585938,124.502563476563,2.71824622154236,-1.67976152896881,7.96331357955933,0.00733038270846009,0.00733038270846009,0.0549778714776039,49.78125
0,1,13.668167,25140198,432849,1770,0,0,219.140625,2049.0234375,124.4873046875,-10.5188484191895,1.04327070713043,7.8149585723877,-0.03176499158144,-0.03176499158144,0.0305432621389627,49.796875
0,1,13.669167,25143834,432912,1760,0,0,219.218734741211,2048.7109375,124.49951171875,-5.90070009231567,1.34955203533173,11.6578330993652,0.0232128798961639,0.0232128798961639,-0.00855211354792118,49.796875
0,1,13.669167,25147520,432978,1761,0,0,220.2734375,2048.515625,124.4873046875,-2.45503616333008,-2.57467722892761,2.37846565246582,0.0464257597923279,0.0464257597923279,-0.12705996632576,49.796875
0,1,13.669167,25151256,433045,1777,0,0,219.218734741211,2049.0625,124.505615234375,-2.33539485931396,-2.42632222175598,4.30229473114014,0.0378736443817616,0.0378736443817616,0.101403623819351,49.796875
0,1,13.669167,25161788,433235,1802,0,0,218.085922241211,2048.7109375,124.505615234375,-6.50369167327881,8.79123020172119,3.03888487815857,-0.00855211354792118,-0.00855211354792118,-0.04764748737216,49.7734375
0,1,13.669167,25165821,433306,1787,0,0,219.140625,2048.125,124.47509765625,-9.89192867279053,4.37886571884155,11.3180503845215,-0.0232128798961639,-0.0232128798961639,0.288328409194946,49.7734375
0,1,13.669167,25169760,433376,1776,0,0,220.390625,2048.5546875,124.490356445313,6.96789979934692,-1.01455676555634,12.294322013855,-0.01588249579072,-0.01588249579072,-0.056199599057436,49.7734375
0,1,13.669167,25173743,433448,1781,0,0,219.062484741211,2048.3984375,124.484252929688,-7.69531726837158,-2.80438852310181,8.55194854736328,0,0,0.0305432621389627,49.7734375
0,1,13.669167,25177670,433520,1811,0,0,220.468734741211,2048.8671875,124.514770507813,-13.4955205917358,4.2113676071167,4.29272365570068,-0.04764748737216,-0.04764748737216,0.00733038270846009,49.7734375
0,1,13.669167,25181563,433593,1850,0,0,220.390625,2048.8671875,124.514770507813,-0.172283232212067,5.6422758102417,4.51286315917969,0.123394772410393,0.123394772410393,0.240680903196335,49.8671875
0,1,13.670168,25185505,433667,1871,0,0,219.257797241211,2048.94506835938,124.51171875,-5.54177713394165,0.239282250404358,11.6530466079712,0.0769690200686455,0.0769690200686455,0,49.8671875
0,1,13.670168,25189490,433741,1867,0,0,219.1796875,2048.94506835938,124.508666992188,-9.71964550018311,-2.72781777381897,8.16909599304199,-0.00855211354792118,-0.00855211354792118,0.0708603635430336,49.8671875
0,1,13.670168,25193414,433813,1849,0,0,219.140625,2048.828125,124.49951171875,-6.21176767349243,2.61774802207947,10.2795667648315,-0.04764748737216,-0.04764748737216,0.0855211317539215,49.8671875
0,1,13.670168,25197296,433883,1825,0,0,219.101547241211,2048.7890625,124.505615234375,7.50867748260498,3.91465783119202,9.38943576812744,-0.0623082555830479,-0.0623082555830479,-0.0244346093386412,49.8671875
0,1,13.670168,25201236,433953,1801,0,0,220.390625,2048.6328125,124.490356445313,-4.29272365570068,1.89032995700836,8.46580696105957,0.0378736443817616,0.0378736443817616,0.0305432621389627,49.87890625
0,1,13.670168,25205227,434024,1782,0,0,220.312469482422,2049.17944335938,124.502563476563,5.27856636047363,-1.88075852394104,10.9399852752686,0.0146607654169202,0.0146607654169202,-0.0244346093386412,49.87890625
0,1,13.670168,25209169,434093,1768,0,0,219.062484741211,2048.0859375,124.472045898438,-3.30209517478943,0.349352121353149,10.5954189300537,0.00733038270846009,0.00733038270846009,0.0146607654169202,49.87890625
0,1,13.670168,25213051,434162,1762,0,0,220.312469482422,2048.515625,124.490356445313,-4.95314311981201,1.04805624485016,-0.789631545543671,0.0464257597923279,0.0464257597923279,0.26511549949646,49.87890625
0,1,13.671168,25216990,434232,1764,0,0,220.351547241211,2048.2421875,124.4873046875,2.27318167686462,-5.44606447219849,14.1894388198853,0.0305432621389627,0.0305432621389627,-0.00855211354792118,49.87890625
0,1,13.671168,25220958,434302,1772,0,0,219.1796875,2048.94506835938,124.508666992188,6.47497797012329,1.04805624485016,3.97208571434021,0.0537561401724815,0.0537561401724815,-0.01588249579072,49.953125
0,1,13.671168,25224877,434371,1773,0,0,220.312469482422,2048.43725585938,124.490356445313,-5.20678234100342,0.674776017665863,15.3619213104248,-0.0232128798961639,-0.0232128798961639,-0.0720821022987366,49.953125
0,1,13.671168,25228748,434439,1764,0,0,219.101547241211,2048.59375,124.502563476563,14.7302160263062,6.32183742523193,6.17826795578003,-0.0855211317539215,-0.0855211317539215,0.0305432621389627,49.953125
0,1,13.671168,25232679,434507,1749,0,0,219.296875,2048.67163085938,124.514770507813,-4.54157733917236,0.851844847202301,12.241681098938,-0.00855211354792118,-0.00855211354792118,0.00733038270846009,49.953125
0,1,13.671168,25236646,434576,1738,0,0,220.312469482422,2048.5546875,124.51171875,-4.26879549026489,-0.177068874239922,6.92004299163818,-0.00855211354792118,-0.00855211354792118,-0.0244346093386412,49.953125
0,1,13.671168,25240560,434645,1743,0,0,219.257797241211,2048.984375,124.51171875,5.8432731628418,-3.27338123321533,9.16451072692871,-0.0390953756868839,-0.0390953756868839,0.0146607654169202,49.93359375
0,1,13.671168,25244433,434715,1770,0,0,220.390625,2048.8671875,124.505615234375,-2.75174617767334,2.4885356426239,8.17866802215576,0.00733038270846009,0.00733038270846009,-0.0244346093386412,49.93359375
0,1,13.671168,25248372,434787,1805,0,0,220.351547241211,2049.0625,124.508666992188,-1.74676048755646,-0.74656069278717,5.24506759643555,0.0769690200686455,0.0769690200686455,-0.040317103266716,49.93359375
0,1,13.672168,25252356,434860,1828,0,0,219.062484741211,2048.359375,124.481201171875,-2.67996144294739,-0.100498549640179,8.9108715057373,0.0928515195846558,0.0928515195846558,0.0940732434391975,49.93359375
0,1,13.672168,25256251,434931,1828,0,0,219.140625,2048.7890625,124.493408203125,0.521635353565216,-1.54097783565521,9.05444145202637,0.0610865242779255,0.0610865242779255,0.0232128798961639,49.93359375
0,1,13.672168,25260104,435000,1812,0,0,219.062484741211,2048.6328125,124.4873046875,1.43090796470642,2.00039982795715,10.5619192123413,-0.00855211354792118,-0.00855211354792118,-0.118507854640484,50.00390625
0,1,13.672168,25264019,435069,1788,0,0,219.1796875,2048.5546875,124.49951171875,3.8572301864624,1.97168588638306,9.77707290649414,-0.01588249579072,-0.01588249579072,-0.11117747426033,50.00390625
0,1,13.672168,25267977,435138,1764,0,0,220.390625,2048.67163085938,124.51171875,-1.7850456237793,1.78025996685028,9.77228832244873,0.0232128798961639,0.0232128798961639,-0.056199599057436,50.00390625
