command_auxdaq_sdwrite,flag_auxdaq_sdwrite,time_internal_seconds,time_auxdaq_us,position_engine_ticks,speed_engine_rpm,position_secondary_ticks,speed_secondary_rpm,pressure_frontbrake_psi,pressure_rearbrake_psi,lds_pedal_mm,imu_acceleration_x,imu_acceleration_y,imu_acceleration_z,imu_gyro_x,imu_gyro_y,imu_gyro_z,imu_temperature
0,1,0.847192,43904324,760536,1699,0,0,186.953125,2048.6328125,124.62158203125,2.16311192512512,-3.09631252288818,9.03051280975342,-0.00855211354792118,-0.00855211354792118,-0.0244346093386412,56.04296875
0,1,0.878199,43951968,761363,1783,0,0,185.742172241211,2048.2421875,124.594116210938,-5.17806768417358,3.73758888244629,11.5094766616821,0.0378736443817616,0.0378736443817616,0.0305432621389627,56.0078125
0,1,0.888201,43995498,762101,1683,0,0,186.9140625,2048.67163085938,124.603271484375,-16.644474029541,3.4360933303833,6.14476871490479,0.0232128798961639,0.0232128798961639,0.117286123335361,56.05078125
0,1,0.909206,44038381,762839,1675,0,0,186.3671875,2051.9140625,124.777221679688,-0.818345308303833,2.66081881523132,4.3214373588562,-0.0549778714776039,-0.0549778714776039,-0.0635299831628799,56.01953125
0,1,0.947215,44081007,763553,1709,0,0,186.40625,2052.3046875,124.786376953125,9.33679389953613,-1.35912311077118,4.5559344291687,-0.01588249579072,-0.01588249579072,-0.03176499158144,56.06640625
0,1,0.994225,44123730,764276,1708,0,0,188.828109741211,2052.03125,124.7802734375,5.53699159622192,-1.17726874351501,9.04965496063232,-0.03176499158144,-0.03176499158144,0.0781907513737679,56.05078125
0,1,1.034234,44166361,765026,1783,0,0,187.695297241211,2051.9140625,124.7802734375,15.1417808532715,-1.45962178707123,17.2618217468262,-0.00855211354792118,-0.00855211354792118,0.0708603635430336,56.04296875
0,1,1.077244,44209436,765778,1766,0,0,187.6171875,2051.9921875,124.79248046875,-1.51226401329041,-0.669990360736847,10.9351987838745,-0.01588249579072,-0.01588249579072,-0.202807247638702,56.09375
0,1,1.118253,44250998,766530,1754,0,0,187.6171875,2052.1875,124.783325195313,-7.35075092315674,-0.847059190273285,9.42772102355957,0.0537561401724815,0.0537561401724815,0.251676470041275,56.12109375
0,1,1.190269,44293853,767295,1842,0,0,188.828109741211,2052.3046875,124.786376953125,0.540777981281281,-2.14396929740906,12.299108505249,0.0464257597923279,0.0464257597923279,0.0855211317539215,56.0859375
0,1,1.220276,44335033,768025,1786,0,0,189.960922241211,2052.1484375,124.789428710938,-3.65144729614258,5.23071050643921,5.27378129959106,0.0305432621389627,0.0305432621389627,-0.040317103266716,56.1328125
0,1,1.242281,44377875,768796,1770,0,0,192.265625,2051.9921875,124.789428710938,-1.58404862880707,-2.05304193496704,10.8825578689575,-0.0940732434391975,-0.0940732434391975,0.0232128798961639,56.1484375
0,1,1.291292,44421871,769571,1798,0,0,192.3828125,2051.9921875,124.783325195313,3.3547375202179,2.41675090789795,3.17288279533386,-0.04764748737216,-0.04764748737216,0.0390953756868839,56.1640625
0,1,1.333749,44462400,770287,1750,0,0,191.09375,2051.83569335938,124.7802734375,8.29352378845215,-2.22532486915588,5.94855690002441,0.0769690200686455,0.0769690200686455,0,56.15625
0,1,1.38076,44504374,771033,1797,0,0,190,2052.2265625,124.783325195313,0.751346230506897,-4.2017970085144,14.5818614959717,-0.266337245702744,-0.266337245702744,0.0623082555830479,56.1328125
0,1,1.409766,44545417,771746,1732,0,0,192.343734741211,2052.34350585938,124.789428710938,-7.20239591598511,0.244067922234535,8.7768726348877,0.0928515195846558,0.0928515195846558,-0.03176499158144,56.1484375
0,1,1.460778,44588175,772504,1719,0,0,189.921859741211,2052.03125,124.783325195313,4.92921495437622,1.91425800323486,11.6243333816528,0,0,-0.157603219151497,56.1328125
0,1,1.495786,44631040,773256,1818,0,0,189.960922241211,2052.2265625,124.789428710938,14.2372951507568,-1.23469650745392,11.0691976547241,0.0696386322379112,0.0696386322379112,0.125838235020638,56.25
0,1,1.589807,44671560,773963,1754,0,0,189.8828125,2052.0703125,124.786376953125,-3.28295254707336,1.83768773078918,15.7304162979126,-0.00855211354792118,-0.00855211354792118,0.0855211317539215,56.2109375
0,1,1.597809,44712824,774696,1774,0,0,190.078109741211,2052.03125,124.795532226563,-3.3308093547821,4.75214576721191,7.28853750228882,-0.0390953756868839,-0.0390953756868839,-0.03176499158144,56.1640625
0,1,1.619814,44754733,775424,1736,0,0,189.921859741211,2052.34350585938,124.789428710938,4.59421968460083,-3.25902438163757,10.671989440918,-0.0623082555830479,-0.0623082555830479,0.0940732434391975,56.171875
0,1,1.66116,44795995,776158,1719,0,0,189.921859741211,2052.1875,124.789428710938,-0.392422914505005,-1.91425800323486,3.37866568565369,-0.0232128798961639,-0.0232128798961639,-0.04764748737216,56.24609375
0,1,1.70417,44838693,776899,1791,0,0,190,2052.1875,124.783325195313,-10.3082790374756,-2.06739902496338,7.90588617324829,0.0537561401724815,0.0537561401724815,-0.040317103266716,56.21484375
0,1,1.759183,44883117,777656,1693,0,0,190.039031982422,2052.3828125,124.801635742188,12.624532699585,1.56969165802002,13.3854503631592,-0.0232128798961639,-0.0232128798961639,0.0305432621389627,56.21875
0,1,1.807195,44923464,778350,1696,0,0,190.039031982422,2052.1484375,124.795532226563,-4.16829681396484,1.29690992832184,4.64207601547241,0,0,-0.0794124826788902,56.203125
0,1,1.845182,44963902,779031,1683,0,0,189.921859741211,2051.953125,124.786376953125,0.851844847202301,-4.84307336807251,10.7054882049561,-0.0549778714776039,-0.0549778714776039,0.0305432621389627,56.26171875
0,1,1.868189,45004412,779727,1658,0,0,189.492172241211,2048.828125,124.639892578125,-0.894915699958801,-3.10588383674622,8.02074146270752,-0.03176499158144,-0.03176499158144,-0.0794124826788902,56.24609375
0,1,1.925202,45047256,780481,1815,0,0,189.3359375,2048.67163085938,124.624633789063,-5.80977344512939,-3.06759881973267,12.8398857116699,0.0769690200686455,0.0769690200686455,-0.01588249579072,56.30859375
0,1,1.954208,45089860,781225,1767,0,0,188.203125,2048.94506835938,124.62158203125,1.41176533699036,5.08235502243042,11.3228368759155,0.0232128798961639,0.0232128798961639,-0.166155353188515,56.28515625
0,1,1.994217,45130613,781951,1759,0,0,188.281234741211,2048.67163085938,124.62158203125,-7.32203769683838,0.870987474918365,10.1359958648682,-0.01588249579072,-0.01588249579072,-0.118507854640484,56.29296875
0,1,2.058232,45173201,782695,1761,0,0,188.203125,2048.75,124.62158203125,-9.60000514984131,0.751346230506897,8.83430194854736,-0.04764748737216,-0.04764748737216,-0.03176499158144,56.30859375
0,1,2.090238,45214506,783429,1747,0,0,187.0703125,2048.7890625,124.624633789063,-5.80977344512939,-3.24945306777954,5.74756002426147,0.0305432621389627,0.0305432621389627,-0.00855211354792118,56.28515625
0,1,2.118245,45254647,784154,1846,0,0,187.031234741211,2048.67163085938,124.62158203125,5.52742052078247,-0.215354055166245,12.6915311813354,-0.00855211354792118,-0.00855211354792118,0.0146607654169202,56.30859375
0,1,2.168255,45297507,784911,1754,0,0,185.859359741211,2048.984375,124.6337890625,-2.00997114181519,2.02432799339294,11.5429763793945,0.0146607654169202,0.0146607654169202,0.0623082555830479,56.30078125
0,1,2.207434,45339600,785662,1739,0,0,184.648422241211,2048.43725585938,124.594116210938,0.382851630449295,-2.54596328735352,12.5240345001221,-0.00855211354792118,-0.00855211354792118,0.0623082555830479,56.28515625
0,1,2.254928,45380868,786382,1783,0,0,185.8203125,2048.90600585938,124.62158203125,-11.0404844284058,-0.540777981281281,2.53639197349548,-0.00855211354792118,-0.00855211354792118,0.101403623819351,56.31640625
0,1,2.285926,45423349,787122,1723,0,0,185.8203125,2048.8671875,124.612426757813,-0.349352121353149,-1.41655099391937,15.184853553772,0.0146607654169202,0.0146607654169202,0.0146607654169202,56.33984375
0,1,2.33594,45467514,787888,1735,0,0,185.9375,2048.90600585938,124.630737304688,1.63190507888794,3.8524444103241,8.20259571075439,-0.01588249579072,-0.01588249579072,0.0305432621389627,56.30078125
0,1,2.462685,45534809,789045,1746,0,0,184.609359741211,2048.2421875,124.603271484375,7.62831878662109,-1.16769742965698,13.7683019638062,-0.0940732434391975,-0.0940732434391975,0.149051114916801,56.421875
0,1,2.465687,45588559,789959,1739,0,0,185.742172241211,2048.5546875,124.606323242188,-12.8303155899048,1.37826585769653,2.99102830886841,-0.0708603635430336,-0.0708603635430336,0.0549778714776039,56.453125
0,1,2.496693,45631345,790690,1700,0,0,185.859359741211,2048.984375,124.62158203125,2.95274305343628,-1.31605231761932,9.71964550018311,0.0464257597923279,0.0464257597923279,-0.11117747426033,56.4609375
0,1,2.542346,45674146,791430,1744,0,0,185.8203125,2048.6328125,124.627685546875,-0.574277460575104,0.832702338695526,12.8494577407837,-0.0708603635430336,-0.0708603635430336,0.0390953756868839,56.4453125
0,1,2.588377,45717414,792169,1723,0,0,185.859359741211,2048.6328125,124.618530273438,0.689132928848267,0.650847792625427,9.78185844421387,-0.00855211354792118,-0.00855211354792118,0.101403623819351,56.453125
0,1,2.678781,45760679,792930,1701,0,0,187.031234741211,2048.6328125,124.627685546875,0.215354055166245,0.593420028686523,4.90528678894043,0.0378736443817616,0.0378736443817616,-0.0867428630590439,56.4609375
0,1,2.681782,45801847,793647,1796,0,0,187.265609741211,2048.59375,124.630737304688,-8.93001461029053,-0.272781759500504,9.88235759735107,0.0378736443817616,0.0378736443817616,-0.040317103266716,56.453125
0,1,2.773804,45844485,794385,1754,0,0,186.953125,2048.6328125,124.624633789063,5.2402811050415,6.08255529403687,8.19781017303467,0.00733038270846009,0.00733038270846009,-0.01588249579072,56.453125
0,1,2.776804,45887706,795149,1748,0,0,188.242172241211,2048.94506835938,124.630737304688,-4.37408018112183,0.803988397121429,8.81994438171387,0,0,0.00733038270846009,57.4375
0,1,2.795808,45930791,795891,1727,0,0,189.453125,2049.140625,124.630737304688,-2.44546461105347,1.05762755870819,11.332407951355,-0.0232128798961639,-0.0232128798961639,0.0940732434391975,56.44921875
0,1,2.838819,45974127,796645,1700,0,0,188.1640625,2048.5546875,124.62158203125,2.72781777381897,-0.349352121353149,2.5986053943634,0.0464257597923279,0.0464257597923279,-0.150272846221924,59.19921875
0,1,2.88546,46017428,797395,1762,0,0,188.789047241211,2052.0703125,124.801635742188,2.02432799339294,-1.91425800323486,14.2851514816284,-0.0781907513737679,-0.0781907513737679,0.0464257597923279,56.4375
0,1,2.934471,46062097,798158,1717,0,0,188.828109741211,2052.03125,124.801635742188,5.474778175354,0.727418065071106,9.40857887268066,0.0464257597923279,0.0464257597923279,0.0940732434391975,56.4453125
0,1,2.970479,46106011,798927,1696,0,0,188.828109741211,2051.796875,124.795532226563,-0.64127641916275,-1.14376926422119,9.75314521789551,0.0146607654169202,0.0146607654169202,-0.03176499158144,56.4375
0,1,3.021726,46149178,799674,1786,0,0,190,2052.265625,124.8046875,18.8985137939453,-3.54137754440308,11.4329071044922,0.0232128798961639,0.0232128798961639,-0.040317103266716,56.453125
0,1,3.057734,46190629,800382,1717,0,0,187.5,2052.0703125,124.786376953125,4.08694124221802,4.88614416122437,6.21176767349243,0.00733038270846009,0.00733038270846009,0.0855211317539215,56.46484375
0,1,3.105745,46233536,801126,1719,0,0,188.828109741211,2051.9140625,124.8046875,3.94815754890442,1.46919298171997,11.691330909729,-0.00855211354792118,-0.00855211354792118,0.109955742955208,56.453125
0,1,3.142754,46276822,801856,1688,0,0,188.828109741211,2052.0703125,124.789428710938,-11.2175540924072,-2.25882434844971,12.8686008453369,-0.0549778714776039,-0.0549778714776039,-0.0244346093386412,56.453125
0,1,3.181763,46317265,802551,1661,0,0,188.828109741211,2052.3828125,124.807739257813,7.15453958511353,-5.20199680328369,12.3756790161133,0.0378736443817616,0.0378736443817616,0.0146607654169202,56.453125
0,1,3.227773,46358111,803273,1824,0,0,188.789047241211,2051.9140625,124.79248046875,-9.16451072692871,-2.84745907783508,10.2699947357178,0.0842994004487991,0.0842994004487991,0,56.453125
0,1,3.274812,46403716,804067,1729,0,0,187.6171875,2052.1484375,124.789428710938,9.67178916931152,0.918843865394592,11.9832553863525,-0.03176499158144,-0.03176499158144,0.0623082555830479,56.4453125
0,1,3.347828,46446675,804818,1712,0,0,187.6171875,2051.9140625,124.798583984375,1.40697968006134,-1.27298164367676,10.1647100448608,-0.0232128798961639,-0.0232128798961639,-0.01588249579072,56.453125
0,1,3.36183,46489657,805562,1775,0,0,188.789047241211,2051.83569335938,124.798583984375,13.8783721923828,0.421136766672134,0.870987474918365,-0.0623082555830479,-0.0623082555830479,0.133168622851372,56.4609375
0,1,3.40284,46532471,806308,1726,0,0,188.789047241211,2051.87475585938,124.798583984375,-0.70348984003067,-3.58444833755493,12.0119695663452,0.0232128798961639,0.0232128798961639,0.0623082555830479,56.4140625
0,1,3.478838,46574794,807046,1758,0,0,187.578109741211,2051.7578125,124.795532226563,18.185453414917,1.57447731494904,8.02074146270752,-0.0855211317539215,-0.0855211317539215,0.0464257597923279,56.4375
0,1,3.506863,46616101,807754,1714,0,0,188.90625,2052.10913085938,124.810791015625,-18.9655113220215,0.177068874239922,12.0598258972168,0.0305432621389627,0.0305432621389627,-0.040317103266716,56.4609375
0,1,3.53087,46657821,808485,1700,0,0,188.789047241211,2051.83569335938,124.801635742188,-12.3373937606812,2.11525511741638,10.0163555145264,0.0146607654169202,0.0146607654169202,-0.252898216247559,56.4296875
0,1,3.572879,46700892,809228,1782,0,0,188.789047241211,2051.83569335938,124.798583984375,-12.6580324172974,2.37846565246582,6.92482852935791,0.0146607654169202,0.0146607654169202,0.125838235020638,56.4140625
0,1,3.618889,46743140,809956,1744,0,0,187.6171875,2051.40625,124.777221679688,-4.4793643951416,3.35952305793762,14.0985116958618,-0.0232128798961639,-0.0232128798961639,-0.0952949747443199,56.4375
0,1,3.651896,46786503,810721,1752,0,0,188.828109741211,2052.10913085938,124.810791015625,-2.99581384658813,2.25403904914856,8.6428747177124,-0.0708603635430336,-0.0708603635430336,-0.0720821022987366,56.4140625
0,1,3.727949,46827935,811440,1741,0,0,187.65625,2052.265625,124.801635742188,3.47916412353516,-2.52203488349915,13.8975133895874,-0.0708603635430336,-0.0708603635430336,0.109955742955208,56.4609375
0,1,3.738916,46871111,812206,1725,0,0,187.578109741211,2051.9140625,124.795532226563,0.186640173196793,-3.18245410919189,12.0167560577393,0.00733038270846009,0.00733038270846009,0.0232128798961639,56.3984375
0,1,3.802087,46914323,812968,1805,0,0,187.578109741211,2051.9921875,124.795532226563,-2.2109682559967,4.24965286254883,10.0833559036255,0.00733038270846009,0.00733038270846009,0.0232128798961639,56.4453125
0,1,3.821091,46957400,813716,1740,0,0,188.8671875,2052.10913085938,124.807739257813,-5.53699159622192,1.14376926422119,9.47557735443115,0.0769690200686455,0.0769690200686455,-0.197920337319374,56.46875
0,1,3.871102,46998094,814439,1733,0,0,187.65625,2052.3046875,124.813842773438,-3.6562328338623,-0.5599205493927,12.7776727676392,0.0146607654169202,0.0146607654169202,-0.0635299831628799,56.46875
0,1,3.90511,47041305,815185,1761,0,0,187.109344482422,2048.984375,124.636840820313,-3.06759881973267,-2.15832591056824,6.23569583892822,0.0378736443817616,0.0378736443817616,-0.0244346093386412,56.4296875
0,1,4.004133,47087077,815973,1723,0,0,185.781234741211,2048.359375,124.615478515625,-3.0197422504425,4.29750919342041,10.3513517379761,-0.00855211354792118,-0.00855211354792118,-0.056199599057436,56.4296875
0,1,4.007133,47128527,816692,1727,0,0,187.031234741211,2048.6328125,124.6337890625,-10.2508525848389,4.60857629776001,7.30768060684204,-0.03176499158144,-0.03176499158144,0.149051114916801,56.453125
0,1,4.038166,47171707,817427,1705,0,0,187.0703125,2048.59375,124.624633789063,-4.79521656036377,-2.54596328735352,17.6207466125488,-0.0390953756868839,-0.0390953756868839,-0.040317103266716,56.40625
0,1,4.076253,47211976,818128,1682,0,0,188.242172241211,2048.7890625,124.630737304688,0.823131024837494,-2.81395936012268,8.11645412445068,-0.01588249579072,-0.01588249579072,-0.056199599057436,56.390625
0,1,4.130265,47254942,818870,1782,0,0,188.242172241211,2048.8671875,124.624633789063,-8.37487888336182,-3.01017093658447,11.6865463256836,-0.03176499158144,-0.03176499158144,-0.0720821022987366,56.4140625
0,1,4.172274,47296830,819589,1745,0,0,185.742172241211,2048.1640625,124.612426757813,-2.75653171539307,4.61814785003662,8.12602615356445,-0.00855211354792118,-0.00855211354792118,0.0623082555830479,56.390625
0,1,4.208283,47340324,820352,1735,0,0,187.031234741211,2048.7109375,124.642944335938,5.73798894882202,0.44506499171257,10.3800649642944,-0.0232128798961639,-0.0232128798961639,-0.0635299831628799,56.4140625
0,1,4.245291,47381528,821060,1718,0,0,187.031234741211,2048.8671875,124.627685546875,-4.03429889678955,-4.35015201568604,13.37109375,0,0,-0.00855211354792118,56.34375
0,1,4.295302,47424622,821812,1704,0,0,188.1640625,2048.75,124.624633789063,0.904487013816833,-2.70388960838318,8.83430194854736,-0.01588249579072,-0.01588249579072,0.0855211317539215,56.3671875
0,1,4.367319,47465692,822539,1816,0,0,188.1640625,2048.59375,124.630737304688,-0.196211457252502,-0.258424878120422,12.6436748504639,0.0378736443817616,0.0378736443817616,-0.150272846221924,56.3125
0,1,4.404432,47508453,823279,1723,0,0,187.031234741211,2048.67163085938,124.636840820313,6.42712211608887,4.22572469711304,9.59521865844727,0.0146607654169202,0.0146607654169202,0.149051114916801,56.28515625
0,1,4.422435,47556745,824120,1688,0,0,189.296875,2048.1640625,124.609375,-3.48394989967346,0.282353043556213,4.70907497406006,0.00733038270846009,0.00733038270846009,-0.14294245839119,56.21875
0,1,4.469445,47599099,824861,1811,0,0,186.9140625,2048.59375,124.6337890625,-7.14018249511719,-2.86660146713257,7.82931566238403,0.153938040137291,0.153938040137291,-0.00855211354792118,56.26171875
0,1,4.520556,47640465,825579,1743,0,0,187.031234741211,2048.8671875,124.627685546875,0.105284191668034,5.24985313415527,11.5716905593872,0.00733038270846009,0.00733038270846009,-0.04764748737216,56.29296875
0,1,4.610577,47681012,826293,1760,0,0,186.9140625,2048.4765625,124.627685546875,-3.27338123321533,6.23569583892822,6.44147920608521,0.0464257597923279,0.0464257597923279,0.0708603635430336,56.31640625
0,1,4.649565,47723886,827022,1680,0,0,185.8203125,2048.7109375,124.627685546875,-1.46919298171997,-2.61296248435974,14.1176528930664,-0.0232128798961639,-0.0232128798961639,0.117286123335361,56.32421875
0,1,4.66659,47766826,827758,1655,0,0,187.031234741211,2048.59375,124.6337890625,3.02452802658081,-3.12502646446228,13.2801656723022,0.0610865242779255,0.0610865242779255,0,56.328125
0,1,4.690595,47807476,828448,1755,0,0,188.1640625,2048.515625,124.612426757813,-0.0382851622998714,-1.87118721008301,8.6572322845459,0.0378736443817616,0.0378736443817616,-0.01588249579072,56.40625
0,1,4.766784,47849638,829139,1633,0,0,187.031234741211,2048.75,124.6337890625,-2.52682089805603,1.58404862880707,12.3086795806885,0.0928515195846558,0.0928515195846558,0.00733038270846009,56.33984375
0,1,4.788617,47895356,829895,1646,0,0,186.9140625,2048.5546875,124.627685546875,0.937986493110657,3.89551520347595,5.62313318252563,-0.03176499158144,-0.03176499158144,0.0781907513737679,56.2890625
0,1,4.80562,47938861,830626,1728,0,0,188.203125,2049.0234375,124.658203125,-10.6863460540771,1.15812623500824,13.5625190734863,-0.00855211354792118,-0.00855211354792118,0.133168622851372,56.421875
0,1,4.84863,47981567,831386,1723,0,0,189.374984741211,2048.43725585938,124.658203125,3.36909413337708,-6.00119924545288,12.2225379943848,-0.0708603635430336,-0.0708603635430336,-0.11117747426033,56.4296875
0,1,4.896642,48022963,832135,1865,0,0,188.789047241211,2051.7578125,124.832153320313,3.64666175842285,-1.33519506454468,9.81057357788086,0,0,0.425162196159363,56.4296875
0,1,4.93565,48065903,832909,1817,0,0,188.75,2051.60131835938,124.813842773438,-2.09132695198059,3.88115835189819,9.89671516418457,-0.0390953756868839,-0.0390953756868839,0.149051114916801,56.4453125
0,1,4.973686,48109550,833713,1800,0,0,188.789047241211,2051.87475585938,124.838256835938,-6.42712211608887,-0.382851630449295,13.6917304992676,0,0,-0.0794124826788902,56.4375
0,1,5.014951,48149705,834444,1859,0,0,188.789047241211,2051.7578125,124.8291015625,-7.69531726837158,0.674776017665863,4.93878602981567,0.116064392030239,0.116064392030239,0.188146486878395,56.4140625
0,1,5.063706,48192525,835216,1807,0,0,188.789047241211,2051.83569335938,124.835205078125,-3.50787806510925,6.32662296295166,8.97787094116211,-0.04764748737216,-0.04764748737216,-0.0867428630590439,56.421875
0,1,5.15683,48235377,835990,1777,0,0,190.039031982422,2052.1484375,124.84130859375,-1.7898313999176,-2.56032037734985,11.8875427246094,-0.0232128798961639,-0.0232128798961639,-0.118507854640484,56.4453125
0,1,5.159831,48276969,836728,1789,0,0,189.921859741211,2052.03125,124.838256835938,-1.79461693763733,3.47437834739685,5.79541635513306,0,0,-0.0244346093386412,56.4609375
0,1,5.189838,48319968,837494,1761,0,0,189.921859741211,2052.1484375,124.838256835938,7.84367275238037,-3.28773856163025,7.57089042663574,0.0464257597923279,0.0464257597923279,-0.102625355124474,56.4296875
0,1,5.232848,48361350,838230,1797,0,0,188.75,2051.9140625,124.822998046875,3.3547375202179,-2.10568380355835,12.5671043395996,-0.0623082555830479,-0.0623082555830479,0.141720727086067,56.453125
0,1,5.275857,48404695,838977,1700,0,0,190.039031982422,2051.9921875,124.84130859375,7.04925584793091,0.770488917827606,10.5379915237427,-0.01588249579072,-0.01588249579072,0.117286123335361,56.4609375
0,1,5.317867,48447588,839722,1681,0,0,190,2051.796875,124.826049804688,-0.59820568561554,0.354137748479843,5.474778175354,0.0610865242779255,0.0610865242779255,0.00733038270846009,56.4609375
0,1,5.356859,48491054,840467,1765,0,0,189.921859741211,2051.6796875,124.819946289063,-1.73718917369843,-4.18265390396118,9.38943576812744,-0.03176499158144,-0.03176499158144,-0.03176499158144,56.453125
0,1,5.397885,48533707,841188,1694,0,0,188.789047241211,2051.7578125,124.832153320313,2.50767827033997,2.46939301490784,5.92941474914551,0.00733038270846009,0.00733038270846009,0.0940732434391975,56.46484375
0,1,5.444999,48576728,841918,1684,0,0,189.960922241211,2051.83569335938,124.838256835938,-11.6291179656982,2.03389930725098,11.696117401123,0.00733038270846009,0.00733038270846009,-0.040317103266716,56.46484375
0,1,5.53502,48619605,842639,1684,0,0,190.039031982422,2052.3046875,124.838256835938,-5.52263450622559,-3.73758888244629,12.1268253326416,-0.0390953756868839,-0.0390953756868839,0,56.50390625
0,1,5.53802,48660390,843339,1658,0,0,190,2052.10913085938,124.838256835938,-2.10568380355835,-3.68494701385498,8.7768726348877,0.0928515195846558,0.0928515195846558,-0.04764748737216,56.46875
0,1,5.568027,48703378,844086,1792,0,0,188.75,2051.9140625,124.835205078125,9.64307498931885,-2.93360066413879,12.0837545394897,0.0769690200686455,0.0769690200686455,0,56.4609375
0,1,5.617042,48744461,844795,1768,0,0,188.8671875,2052.0703125,124.838256835938,0.507278382778168,4.15394020080566,9.04008388519287,0.0232128798961639,0.0232128798961639,0.0708603635430336,56.484375
0,1,5.660048,48787207,845556,1757,0,0,189.921859741211,2052.0703125,124.838256835938,-0.172283232212067,1.25383913516998,7.93938541412354,0.00733038270846009,0.00733038270846009,0,56.46875
0,1,5.697056,48831800,846334,1772,0,0,189.921859741211,2051.71875,124.84130859375,-5.00099897384644,4.65164709091187,6.19262504577637,-0.0781907513737679,-0.0781907513737679,0.0390953756868839,56.4765625
0,1,5.737065,48873527,847070,1755,0,0,189.960922241211,2052.1875,124.850463867188,3.91944336891174,0.330209523439407,3.2973096370697,0.0146607654169202,0.0146607654169202,-0.00855211354792118,56.49609375
0,1,5.790078,48914643,847811,1830,0,0,189.8828125,2051.796875,124.84130859375,-1.63669061660767,0.48813584446907,13.7587308883667,-0.0623082555830479,-0.0623082555830479,0.101403623819351,56.46484375
0,1,5.860093,48955952,848540,1758,0,0,189.960922241211,2051.87475585938,124.819946289063,10.9830560684204,0.732203722000122,7.36032247543335,0.0537561401724815,0.0537561401724815,-0.0720821022987366,56.5
0,1,5.8881,48998683,849307,1742,0,0,189.960922241211,2052.0703125,124.835205078125,-3.996013879776,0.756132006645203,13.5816612243652,0,0,0.0146607654169202,56.46484375
0,1,5.907104,49041466,850063,1826,0,0,188.281234741211,2048.7890625,124.679565429688,9.95414257049561,-3.03409910202026,14.7206449508667,0.0610865242779255,0.0610865242779255,-0.0867428630590439,56.4921875
0,1,5.951114,49083722,850804,1764,0,0,188.281234741211,2048.75,124.676513671875,-3.11545538902283,5.23071050643921,5.03449869155884,-0.0940732434391975,-0.0940732434391975,0.0232128798961639,56.44921875
0,1,5.999125,49124371,851529,1768,0,0,189.453125,2048.67163085938,124.67041015625,-1.23948204517365,1.79940271377563,9.76750183105469,-0.04764748737216,-0.04764748737216,0.0232128798961639,56.453125
0,1,6.044135,49165534,852243,1731,0,0,189.374984741211,2048.75,124.679565429688,-0.947557806968689,-1.87118721008301,16.6923313140869,0.00733038270846009,0.00733038270846009,0.0855211317539215,56.4375
0,1,6.080143,49206810,852973,1711,0,0,189.453125,2049.0234375,124.679565429688,5.70448923110962,-3.61316204071045,6.38883638381958,0.0610865242779255,0.0610865242779255,0.0390953756868839,56.4453125
0,1,6.119152,49249580,853727,1816,0,0,189.296875,2048.75,124.67041015625,-8.04945468902588,-0.95234340429306,9.41336441040039,-0.0549778714776039,-0.0549778714776039,-0.040317103266716,56.46875
0,1,6.164162,49293288,854488,1745,0,0,189.414047241211,2048.828125,124.664306640625,12.9021005630493,1.51226401329041,9.0113697052002,0.0378736443817616,0.0378736443817616,-0.150272846221924,56.4453125
0,1,6.24318,49333569,855205,1744,0,0,189.374984741211,2048.75,124.673461914063,1.09591269493103,-0.674776017665863,11.552547454834,-0.03176499158144,-0.03176499158144,0.101403623819351,56.4296875
0,1,6.264185,49375344,855934,1774,0,0,189.374984741211,2048.8671875,124.667358398438,7.79581642150879,4.28793859481812,7.03968477249146,-0.01588249579072,-0.01588249579072,-0.0244346093386412,56.421875
0,1,6.280188,49415420,856640,1724,0,0,188.242172241211,2048.75,124.679565429688,2.51246380805969,-1.88554430007935,3.97208571434021,-0.212581098079681,-0.212581098079681,-0.01588249579072,56.4453125
0,1,6.326199,49458241,857395,1795,0,0,188.1640625,2048.984375,124.685668945313,5.42692184448242,1.51226401329041,12.7872438430786,-0.01588249579072,-0.01588249579072,-0.0635299831628799,56.40625
0,1,6.37421,49500855,858125,1692,0,0,189.414047241211,2048.59375,124.676513671875,8.21695327758789,2.37846565246582,7.6809606552124,0.00733038270846009,0.00733038270846009,0.201585531234741,56.4296875
0,1,6.42022,49541320,858826,1690,0,0,188.1640625,2048.8671875,124.661254882813,-5.19721078872681,2.16789722442627,8.77208805084229,-0.0232128798961639,-0.0232128798961639,0.0781907513737679,56.421875
0,1,6.454228,49584168,859550,1726,0,0,188.242172241211,2048.59375,124.673461914063,4.4793643951416,1.94775760173798,4.76171684265137,0.0378736443817616,0.0378736443817616,-0.0635299831628799,56.4296875
0,1,6.489216,49624799,860242,1672,0,0,188.1640625,2048.75,124.673461914063,4.79521656036377,0.947557806968689,1.26341044902802,-0.0232128798961639,-0.0232128798961639,0.180816113948822,58.0859375
0,1,6.536246,49668091,860985,1749,0,0,186.992172241211,2048.67163085938,124.676513671875,0.574277460575104,0.00957129057496786,13.3567361831665,0.0378736443817616,0.0378736443817616,0.0781907513737679,56.42578125
0,1,6.609263,49710899,861707,1701,0,0,188.1640625,2048.59375,124.676513671875,12.1411828994751,1.03848505020142,11.4233350753784,0.0305432621389627,0.0305432621389627,-0.134390354156494,58.92578125
0,1,6.626267,49755206,862473,1674,0,0,188.1640625,2048.828125,124.6826171875,1.95254337787628,0.00957129057496786,11.6865463256836,0.0769690200686455,0.0769690200686455,0.109955742955208,56.4296875
0,1,6.662275,49798018,863223,1812,0,0,188.1640625,2048.4765625,124.67041015625,16.5774745941162,0.315852612257004,5.84805870056152,0.0610865242779255,0.0610865242779255,-0.0794124826788902,56.4375
0,1,6.713283,49840743,863973,1777,0,0,186.992172241211,2048.8671875,124.67041015625,1.19162571430206,4.50329256057739,12.4809627532959,0.0146607654169202,0.0146607654169202,0,56.40625
0,1,6.768414,49880929,864693,1789,0,0,186.992172241211,2048.43725585938,124.655151367188,-3.7471604347229,5.92941474914551,5.46520709991455,-0.0390953756868839,-0.0390953756868839,0,56.390625
0,1,6.822423,49921156,865399,1755,0,0,186.992172241211,2048.1640625,124.652099609375,-5.33120918273926,-2.89052987098694,11.8636140823364,0.296880483627319,0.296880483627319,0.0146607654169202,56.421875
0,1,6.841426,49964075,866168,1744,0,0,189.374984741211,2048.2421875,124.655151367188,5.94377136230469,-1.33998072147369,6.50847768783569,0.0232128798961639,0.0232128798961639,0,56.390625
0,1,6.871433,50007808,866964,1855,0,0,187.539047241211,2051.6796875,124.835205078125,7.32682275772095,0.220139682292938,14.0171556472778,-0.04764748737216,-0.04764748737216,-0.118507854640484,56.3125
0,1,6.94945,50050241,867717,1753,0,0,187.578109741211,2052.0703125,124.84130859375,-4.35972261428833,0.689132928848267,11.5046911239624,0.0305432621389627,0.0305432621389627,-0.0867428630590439,56.328125
0,1,6.965454,50096447,868534,1722,0,0,187.6171875,2052.1484375,124.84130859375,-1.48355007171631,0.775274515151978,5.00099897384644,0.0769690200686455,0.0769690200686455,-0.11117747426033,56.33203125
0,1,7.007464,50139450,869291,1807,0,0,187.695297241211,2052.1875,124.853515625,-10.6672029495239,-2.15832591056824,9.78185844421387,0.00733038270846009,0.00733038270846009,0.188146486878395,56.28125
0,1,7.055475,50181103,870019,1776,0,0,187.6171875,2051.9921875,124.850463867188,3.58923387527466,3.51744914054871,5.05842685699463,0.0232128798961639,0.0232128798961639,-0.0867428630590439,59.42578125
0,1,7.098484,50223226,870768,1754,0,0,187.65625,2051.5625,124.838256835938,-1.70847535133362,-0.473778903484344,7.65703201293945,-0.0623082555830479,-0.0623082555830479,0.201585531234741,56.37890625
0,1,7.139493,50266196,871513,1732,0,0,188.75,2051.796875,124.844360351563,-8.03031253814697,1.7324036359787,12.4139652252197,-0.0549778714776039,-0.0549778714776039,0.0232128798961639,56.421875
0,1,7.174501,50309155,872257,1709,0,0,187.5,2052.10913085938,124.847412109375,3.45523595809937,-2.55553460121155,2.57946300506592,0,0,-0.157603219151497,56.37109375
0,1,7.219512,50349687,872957,1762,0,0,187.6171875,2051.953125,124.847412109375,9.36072254180908,1.06719887256622,10.6432752609253,0.0232128798961639,0.0232128798961639,0.101403623819351,56.4140625
0,1,7.30253,50391033,873660,1715,0,0,187.6171875,2051.83569335938,124.850463867188,3.54137754440308,3.0484561920166,7.97288465499878,0.0232128798961639,0.0232128798961639,0.0708603635430336,56.421875
0,1,7.320535,50432482,874377,1698,0,0,188.828109741211,2051.9140625,124.84130859375,-5.33120918273926,-0.382851630449295,10.2843523025513,0.0464257597923279,0.0464257597923279,-0.00855211354792118,56.421875
0,1,7.338538,50474538,875089,1701,0,0,187.734359741211,2052.10913085938,124.859619140625,-2.54596328735352,0.957129001617432,12.2608232498169,-0.0708603635430336,-0.0708603635430336,0.0940732434391975,58.75390625
0,1,7.38555,50517570,875828,1696,0,0,187.539047241211,2052.10913085938,124.850463867188,-1.07677030563354,-2.04825615882874,0.569491803646088,0.0146607654169202,0.0146607654169202,-0.0867428630590439,56.46875
0,1,7.440561,50563794,876645,1780,0,0,186.484359741211,2051.9921875,124.859619140625,4.04387044906616,-0.789631545543671,12.7298164367676,-0.0623082555830479,-0.0623082555830479,0.0549778714776039,56.41796875
0,1,7.47557,50607019,877393,1728,0,0,186.796875,2053.90625,124.923706054688,10.3226366043091,-0.856630504131317,9.98764133453369,0.0146607654169202,0.0146607654169202,0.0305432621389627,56.453125
0,1,7.52258,50648916,878133,1709,0,0,187.578109741211,2051.640625,124.847412109375,2.92402935028076,-0.478564500808716,5.55134868621826,0.0305432621389627,0.0305432621389627,-0.102625355124474,56.4375
0,1,7.558588,50692743,878910,1829,0,0,186.445297241211,2052.10913085938,124.856567382813,2.25403904914856,-3.10109806060791,7.00139951705933,0.0928515195846558,0.0928515195846558,-0.0635299831628799,56.453125
0,1,7.600703,50735833,879664,1759,0,0,186.40625,2051.5234375,124.832153320313,-6.33619451522827,2.60339117050171,12.6436748504639,0,0,-0.03176499158144,56.40625
0,1,7.683722,50778763,880430,1744,0,0,186.445297241211,2052.1484375,124.844360351563,-4.94835758209229,2.20139670372009,8.99701309204102,-0.0855211317539215,-0.0855211317539215,0.0781907513737679,56.421875
0,1,7.686723,50819597,881145,1784,0,0,186.445297241211,2051.71875,124.847412109375,15.0125684738159,3.0436704158783,1.77547442913055,0,0,0.125838235020638,56.46875
0,1,7.726732,50862789,881908,1753,0,0,187.578109741211,2051.640625,124.835205078125,1.38783717155457,-4.68036127090454,12.7441740036011,0.0842994004487991,0.0842994004487991,0.0146607654169202,56.453125
0,1,7.772742,50907002,882695,1778,0,0,186.445297241211,2052.34350585938,124.856567382813,-1.85683047771454,4.2113676071167,6.20219612121582,-0.0623082555830479,-0.0623082555830479,-0.040317103266716,56.44921875
0,1,7.816858,50948719,883411,1695,0,0,186.445297241211,2052.7734375,124.853515625,9.23151016235352,-3.4360933303833,14.8067874908447,-0.0940732434391975,-0.0940732434391975,0.0781907513737679,56.4453125
0,1,7.855866,50991763,884157,1675,0,0,186.445297241211,2052.1484375,124.844360351563,2.53639197349548,-1.5074782371521,8.04945468902588,0.0378736443817616,0.0378736443817616,0.272445887327194,56.453125
0,1,7.906878,51032670,884850,1743,0,0,185.859359741211,2048.8671875,124.69482421875,6.47976350784302,-1.38305151462555,7.49910593032837,0.0464257597923279,0.0464257597923279,-0.01588249579072,56.4609375
0,1,7.947887,51075556,885571,1714,0,0,185.859359741211,2048.828125,124.6826171875,2.43110799789429,3.67537546157837,9.83450126647949,0.0610865242779255,0.0610865242779255,-0.056199599057436,56.48828125
0,1,8.019904,51118674,886314,1710,0,0,185.8203125,2048.8671875,124.679565429688,-1.33519506454468,3.13938331604004,10.3657083511353,-0.03176499158144,-0.03176499158144,-0.0635299831628799,56.4296875
0,1,8.053911,51158877,887004,1729,0,0,185.312484741211,2048.90600585938,124.679565429688,11.8253297805786,-1.40697968006134,9.86800003051758,-0.01588249579072,-0.01588249579072,-0.040317103266716,56.4375
0,1,8.071915,51200476,887738,1709,0,0,185.8203125,2048.75,124.679565429688,-2.49332118034363,-1.84725904464722,5.54656267166138,0.00733038270846009,0.00733038270846009,-0.00855211354792118,56.4296875
0,1,8.106927,51242811,888494,1840,0,0,185.8203125,2048.3984375,124.679565429688,-9.83928680419922,-2.05304193496704,9.42293548583984,0.100181899964809,0.100181899964809,0.141720727086067,56.421875
0,1,8.157441,51284421,889228,1776,0,0,184.648422241211,2048.5546875,124.679565429688,4.36450815200806,4.63729047775269,6.92482852935791,0.0146607654169202,0.0146607654169202,-0.00855211354792118,56.4609375
0,1,8.218455,51353407,890459,1793,0,0,184.609359741211,2048.59375,124.664306640625,1.12941217422485,2.80917382240295,12.1842527389526,-0.00855211354792118,-0.00855211354792118,-0.102625355124474,56.4609375
0,1,8.278724,51405071,891388,1757,0,0,185.8203125,2048.5546875,124.676513671875,-0.0765703245997429,-0.421136766672134,7.26460933685303,0.0146607654169202,0.0146607654169202,0.0146607654169202,56.484375
0,1,8.31973,51447849,892151,1823,0,0,185.781234741211,2048.7890625,124.688720703125,1.45483613014221,1.09591269493103,14.5579328536987,0.0610865242779255,0.0610865242779255,0.0390953756868839,56.48828125
0,1,8.353859,51489580,892883,1761,0,0,185.859359741211,2048.984375,124.685668945313,-8.99701309204102,4.12044048309326,8.40359401702881,0.0464257597923279,0.0464257597923279,0.0623082555830479,56.4609375
0,1,8.430878,51531642,893633,1743,0,0,185.8203125,2048.94506835938,124.6826171875,-5.63270425796509,1.06241321563721,13.6390895843506,0.0232128798961639,0.0232128798961639,0.0305432621389627,56.453125
0,1,8.438894,51574558,894388,1803,0,0,185.8203125,2048.8671875,124.691772460938,18.1184539794922,0.157926306128502,3.44087910652161,0.0464257597923279,0.0464257597923279,0.0305432621389627,56.4453125
0,1,8.481886,51617519,895144,1747,0,0,185.8203125,2048.7890625,124.679565429688,4.14436864852905,-2.02432799339294,14.4526481628418,0.0537561401724815,0.0537561401724815,0.0390953756868839,59.46875
0,1,8.531901,51658772,895869,1762,0,0,185.8203125,2048.8671875,124.691772460938,-2.75174617767334,3.42652201652527,5.83848714828491,-0.0549778714776039,-0.0549778714776039,0.0305432621389627,56.45703125
0,1,8.57016,51702031,896614,1717,0,0,184.648422241211,2049.3359375,124.6826171875,1.41176533699036,-0.411565512418747,9.75314521789551,-0.0232128798961639,-0.0232128798961639,-0.0867428630590439,56.4375
0,1,8.613169,51744351,897357,1701,0,0,185.781234741211,2048.4765625,124.667358398438,-4.8335018157959,-5.00099897384644,6.82432985305786,0.0769690200686455,0.0769690200686455,-0.118507854640484,56.4140625
0,1,8.65218,51784494,898057,1801,0,0,185.781234741211,2048.359375,124.661254882813,-12.3517503738403,-2.24925327301025,10.9064855575562,0.116064392030239,0.116064392030239,-0.0720821022987366,56.3984375
0,1,8.692184,51827743,898806,1746,0,0,185.781234741211,2048.7890625,124.688720703125,3.69451808929443,4.19222497940063,3.90508675575256,0.0378736443817616,0.0378736443817616,0.0146607654169202,56.37109375
0,1,8.737196,51872928,899601,1728,0,0,185.8203125,2048.3984375,124.676513671875,-2.53160643577576,-1.3686945438385,10.2221384048462,0.0842994004487991,0.0842994004487991,-0.0720821022987366,56.35546875
0,1,8.820298,51915804,900337,1744,0,0,185.859359741211,2048.515625,124.685668945313,-2.62253379821777,4.3214373588562,5.93898630142212,0.0378736443817616,0.0378736443817616,-0.00855211354792118,56.40625
0,1,8.823297,51959063,901084,1701,0,0,185.742172241211,2048.4765625,124.673461914063,6.98704195022583,-3.69451808929443,11.997612953186,-0.01588249579072,-0.01588249579072,-0.056199599057436,56.421875
0,1,8.873306,52002166,901830,1749,0,0,185.781234741211,2048.90600585938,124.685668945313,1.87597298622131,-0.861416220664978,13.1748809814453,0.0146607654169202,0.0146607654169202,-0.257785111665726,56.4140625
0,1,8.908316,52043584,902527,1675,0,0,186.445297241211,2052.1875,124.856567382813,5.07278394699097,0.325423896312714,7.59481906890869,0.0464257597923279,0.0464257597923279,0.00733038270846009,56.40625
0,1,8.960327,52086799,903267,1660,0,0,185.234375,2051.953125,124.847412109375,-2.12004113197327,-1.42133665084839,10.2173528671265,0.0696386322379112,0.0696386322379112,-0.11117747426033,56.48046875
0,1,9.038358,52126829,903953,1753,0,0,185.234375,2052.0703125,124.847412109375,1.3686945438385,2.50289249420166,0.153140649199486,0.0464257597923279,0.0464257597923279,-0.00855211354792118,56.36328125
0,1,9.063352,52169637,904695,1745,0,0,185.234375,2052.3046875,124.853515625,3.63230466842651,-1.45962178707123,7.58524751663208,0.116064392030239,0.116064392030239,-0.00855211354792118,56.36328125
0,1,9.085358,52214787,905498,1777,0,0,185.351547241211,2051.953125,124.856567382813,-0.574277460575104,5.20199680328369,6.27398109436035,-0.03176499158144,-0.03176499158144,-0.0720821022987366,56.35546875
0,1,9.125363,52256853,906232,1743,0,0,185.234375,2051.9921875,124.853515625,-3.73758888244629,-2.50767827033997,10.9304141998291,-0.0781907513737679,-0.0781907513737679,0.0781907513737679,56.30078125
0,1,9.165426,52300663,907011,1727,0,0,186.445297241211,2052.3046875,124.862670898438,2.54117751121521,-3.39302253723145,12.4139652252197,-0.03176499158144,-0.03176499158144,0.0390953756868839,56.40234375
0,1,9.207455,52342619,907751,1809,0,0,186.445297241211,2051.953125,124.850463867188,9.42293548583984,0.698704242706299,12.6436748504639,0.00733038270846009,0.00733038270846009,0.0464257597923279,56.31640625
0,1,9.25845,52385357,908487,1712,0,0,186.328109741211,2052.1484375,124.856567382813,13.3567361831665,1.59840548038483,10.8299150466919,0,0,0.0464257597923279,56.28515625
0,1,9.293454,52428033,909232,1702,0,0,185.234375,2051.9140625,124.853515625,-5.63270425796509,0.870987474918365,12.6819610595703,0.0232128798961639,0.0232128798961639,0.149051114916801,56.30078125
0,1,9.343465,52469755,909937,1713,0,0,185.312484741211,2052.2265625,124.853515625,-11.3754787445068,0.82791668176651,-0.0430708080530167,-0.0390953756868839,-0.0390953756868839,0.0781907513737679,56.234375
0,1,9.377474,52510522,910630,1666,0,0,184.0234375,2052.1484375,124.853515625,1.96690022945404,1.58404862880707,2.55553460121155,0.0696386322379112,0.0696386322379112,-0.0635299831628799,56.27734375
0,1,9.422484,52554815,911392,1753,0,0,185.2734375,2051.9140625,124.856567382813,11.1601247787476,-1.00498557090759,14.9264278411865,0.0464257597923279,0.0464257597923279,0,56.28515625
0,1,9.470493,52598004,912132,1739,0,0,185.195297241211,2051.7578125,124.853515625,8.39880752563477,0.473778903484344,12.0550403594971,-0.03176499158144,-0.03176499158144,0.196698606014252,56.31640625
0,1,9.504578,52640670,912887,1718,0,0,185.234375,2052.0703125,124.850463867188,-3.90987229347229,1.4021942615509,11.0644121170044,0.0696386322379112,0.0696386322379112,-0.0635299831628799,56.30859375
0,1,9.548584,52681328,913596,1789,0,0,185.2734375,2051.953125,124.853515625,13.0743837356567,-0.267996162176132,4.01994228363037,0.0232128798961639,0.0232128798961639,0.0305432621389627,56.26953125
0,1,9.619604,52724187,914347,1772,0,0,185.156219482422,2051.87475585938,124.853515625,-3.775874376297,-1.7898313999176,15.9888410568237,0.0378736443817616,0.0378736443817616,0.0390953756868839,56.2265625
0,1,9.639607,52766272,915100,1786,0,0,185.2734375,2052.34350585938,124.868774414063,-4.15394020080566,5.91505765914917,6.50369167327881,-0.0549778714776039,-0.0549778714776039,0,56.30078125
0,1,9.686621,52809366,915861,1772,0,0,185.1171875,2051.953125,124.844360351563,-1.06719887256622,-4.80000257492065,15.2183513641357,-0.00855211354792118,-0.00855211354792118,0,56.32421875
0,1,9.720624,52852229,916633,1762,0,0,184.101547241211,2051.83569335938,124.859619140625,-2.18704009056091,-3.06759881973267,6.95832824707031,0.00733038270846009,0.00733038270846009,0.109955742955208,56.27734375
0,1,9.772637,52896657,917431,1817,0,0,184.0234375,2052.1484375,124.850463867188,-10.2843523025513,-0.114855483174324,13.643874168396,-0.04764748737216,-0.04764748737216,0.0855211317539215,56.33203125
0,1,9.829673,52939504,918182,1735,0,0,186.445297241211,2052.1875,124.86572265625,4.46022176742554,-1.85204482078552,10.9830560684204,-0.0232128798961639,-0.0232128798961639,0.0232128798961639,56.30859375
0,1,9.884685,52982445,918944,1721,0,0,185.351547241211,2052.10913085938,124.856567382813,-6.13041162490845,0.373280346393585,2.17746877670288,0.0305432621389627,0.0305432621389627,0.0232128798961639,56.30859375
0,1,9.888684,53025029,919694,1819,0,0,184.648422241211,2048.6328125,124.685668945313,-6.48933553695679,-1.54097783565521,7.99681329727173,0.0305432621389627,0.0305432621389627,0.188146486878395,56.30078125
0,1,9.93069,53066189,920410,1744,0,0,182.265609741211,2048.7109375,124.69482421875,6.09212636947632,4.95792818069458,1.21076834201813,0.0146607654169202,0.0146607654169202,-0.00855211354792118,56.32421875
0,1,9.982702,53109063,921165,1737,0,0,183.4765625,2049.0234375,124.69482421875,1.33519506454468,0.387637257575989,5.5657057762146,0,0,-0.01588249579072,56.28515625
0,1,10.039718,53151570,921893,1717,0,0,185.859359741211,2048.7890625,124.697875976563,-3.92901492118835,1.30169558525085,10.5523490905762,-0.0623082555830479,-0.0623082555830479,0.0708603635430336,56.30859375
0,1,10.073723,53194211,922630,1685,0,0,184.6875,2048.828125,124.697875976563,-0.770488917827606,-0.0478564538061619,3.02452802658081,0.0305432621389627,0.0305432621389627,-0.01588249579072,56.27734375
0,1,10.106731,53238731,923393,1745,0,0,184.6875,2048.8671875,124.676513671875,4.34536552429199,-3.95294308662415,14.9312143325806,-0.0708603635430336,-0.0708603635430336,0.00733038270846009,56.2421875
0,1,10.150744,53280385,924098,1711,0,0,184.648422241211,2048.828125,124.6826171875,13.6869459152222,0.799202740192413,11.5764760971069,0.0378736443817616,0.0378736443817616,0,57.515625
0,1,10.240131,53321727,924817,1700,0,0,185.8203125,2048.28125,124.676513671875,-4.15394020080566,0.933200895786285,12.6771745681763,-0.01588249579072,-0.01588249579072,0.0464257597923279,56.2421875
0,1,10.242761,53362717,925517,1725,0,0,184.648422241211,2048.75,124.69482421875,2.42153668403625,2.85224461555481,7.62353324890137,-0.04764748737216,-0.04764748737216,-0.00855211354792118,56.31640625
0,1,10.27377,53405390,926255,1716,0,0,183.4375,2048.7109375,124.691772460938,11.4664058685303,-0.957129001617432,1.22512519359589,-0.0232128798961639,-0.0232128798961639,0.0623082555830479,56.23046875
0,1,10.313784,53448063,927010,1796,0,0,183.4375,2048.6328125,124.679565429688,-5.5322060585022,-0.200997099280357,13.3375940322876,-0.03176499158144,-0.03176499158144,-0.0244346093386412,56.15625
0,1,10.364771,53488880,927720,1745,0,0,184.6875,2048.8671875,124.691772460938,12.2081813812256,0.119641125202179,8.53759098052979,-0.00855211354792118,-0.00855211354792118,0.172263994812965,56.265625
0,1,10.399778,53529299,928439,1734,0,0,184.609359741211,2048.3984375,124.673461914063,-7.95374250411987,-0.483350187540054,7.95374250411987,-0.0623082555830479,-0.0623082555830479,-0.266337245702744,56.19140625
0,1,10.437788,53570045,929149,1771,0,0,185.078109741211,2048.515625,124.676513671875,4.22093963623047,2.55074906349182,0.803988397121429,0.0378736443817616,0.0378736443817616,-0.01588249579072,56.30859375
0,1,10.475816,53611479,929873,1719,0,0,183.515609741211,2048.59375,124.685668945313,7.71924543380737,-2.84267330169678,3.91944336891174,0.0464257597923279,0.0464257597923279,-0.03176499158144,56.26171875
0,1,10.521808,53654043,930613,1763,0,0,183.515609741211,2048.7890625,124.685668945313,7.98245668411255,-3.38823676109314,12.7250308990479,0.0146607654169202,0.0146607654169202,0.0232128798961639,56.2421875
0,1,10.611828,53694685,931298,1669,0,0,183.4765625,2048.828125,124.688720703125,8.04467010498047,1.75154614448547,7.30768060684204,0.0146607654169202,0.0146607654169202,0.0708603635430336,56.26171875
0,1,10.614828,53737482,932024,1652,0,0,183.515609741211,2048.94506835938,124.69482421875,-2.97188568115234,1.64147627353668,5.24985313415527,-0.00855211354792118,-0.00855211354792118,-0.01588249579072,56.21875
0,1,10.645835,53778939,932721,1709,0,0,184.609359741211,2048.8671875,124.6826171875,1.77068877220154,3.61316204071045,11.1984100341797,-0.0708603635430336,-0.0708603635430336,0.0940732434391975,56.21875
0,1,10.691845,53822374,933463,1709,0,0,183.4765625,2048.515625,124.676513671875,2.19182538986206,0.296710014343262,4.6660041809082,0.0537561401724815,0.0537561401724815,-0.0720821022987366,56.25
0,1,10.73686,53865216,934219,1786,0,0,183.515609741211,2048.59375,124.679565429688,10.3417797088623,-0.832702338695526,12.7058887481689,-0.03176499158144,-0.03176499158144,-0.11117747426033,56.25
0,1,10.776864,53911126,935021,1757,0,0,183.4375,2048.3203125,124.664306640625,1.61276257038116,-3.23031044006348,9.19801044464111,0,0,0.149051114916801,56.2421875
0,1,10.816876,53952531,935764,1741,0,0,184.648422241211,2048.59375,124.679565429688,1.04327070713043,-1.56012034416199,4.03908491134644,-0.0232128798961639,-0.0232128798961639,0.0390953756868839,56.23046875
0,1,10.871884,53994883,936510,1809,0,0,183.4765625,2048.7109375,124.6826171875,1.57926309108734,-4.34057998657227,6.71426010131836,0.0378736443817616,0.0378736443817616,-0.14294245839119,56.26171875
0,1,10.917897,54037493,937247,1727,0,0,182.851547241211,2051.9140625,124.86572265625,7.33160877227783,1.68933284282684,11.696117401123,0.0305432621389627,0.0305432621389627,0.117286123335361,56.203125
0,1,10.986913,54079149,937974,1714,0,0,184.0234375,2051.640625,124.856567382813,-0.770488917827606,0.646062076091766,6.29790925979614,0.0232128798961639,0.0232128798961639,-0.00855211354792118,56.2734375
0,1,10.989914,54121990,938712,1742,0,0,185.234375,2051.87475585938,124.850463867188,5.130211353302,0.167497590184212,6.54197692871094,-0.00855211354792118,-0.00855211354792118,-0.04764748737216,58.609375
0,1,11.033926,54162600,939419,1701,0,0,185.234375,2051.87475585938,124.847412109375,-3.81894516944885,0.760917603969574,8.18345355987549,-0.01588249579072,-0.01588249579072,-0.0244346093386412,56.234375
0,1,11.070952,54205342,940156,1762,0,0,184.140625,2051.87475585938,124.868774414063,7.97288465499878,2.75174617767334,11.1744813919067,0.0769690200686455,0.0769690200686455,-0.241902634501457,56.25
0,1,11.12294,54251438,940939,1701,0,0,183.984375,2051.87475585938,124.84130859375,8.25045204162598,1.04805624485016,11.3467645645142,0,0,-0.056199599057436,56.21875
0,1,11.163952,54294132,941678,1678,0,0,184.101547241211,2051.87475585938,124.868774414063,-5.2402811050415,1.47876441478729,9.93021392822266,-0.0549778714776039,-0.0549778714776039,0.0940732434391975,56.21875
0,1,11.19996,54336085,942408,1791,0,0,184.101547241211,2051.796875,124.859619140625,9.48993492126465,2.82353067398071,5.97727108001709,0.0928515195846558,0.0928515195846558,0.0549778714776039,56.1796875
0,1,11.253971,54378070,943139,1759,0,0,184.101547241211,2051.9921875,124.859619140625,-1.90468680858612,-0.306281298398972,11.3898363113403,0.00733038270846009,0.00733038270846009,-0.00855211354792118,56.25390625
0,1,11.321985,54420275,943888,1773,0,0,183.984375,2052.0703125,124.853515625,-1.25383913516998,3.75673174858093,8.52802085876465,0.00733038270846009,0.00733038270846009,0.0781907513737679,56.21875
0,1,11.358997,54463147,944635,1743,0,0,182.929672241211,2052.0703125,124.868774414063,6.18783950805664,-3.93380045890808,10.265209197998,0.0146607654169202,0.0146607654169202,0.0623082555830479,56.1953125
0,1,11.377001,54504984,945379,1727,0,0,184.0234375,2051.7578125,124.859619140625,4.77607440948486,-4.15394020080566,9.55214881896973,-0.00855211354792118,-0.00855211354792118,0.164933606982231,56.234375
0,1,11.410007,54546354,946123,1849,0,0,184.101547241211,2051.9921875,124.862670898438,-0.64127641916275,-2.12482643127441,7.32682275772095,0.0305432621389627,0.0305432621389627,-0.150272846221924,56.26953125
0,1,11.460019,54588258,946861,1750,0,0,184.062484741211,2052.1484375,124.86572265625,6.33140850067139,2.33539485931396,10.9399852752686,0.0464257597923279,0.0464257597923279,-0.00855211354792118,56.26171875
0,1,11.514549,54631030,947619,1738,0,0,184.101547241211,2051.640625,124.862670898438,2.79960250854492,0.923629522323608,7.79581642150879,-0.0623082555830479,-0.0623082555830479,0,56.26953125
0,1,11.542556,54673942,948363,1770,0,0,184.062484741211,2052.34350585938,124.868774414063,2.92881488800049,1.37826585769653,1.67976152896881,0,0,0.0146607654169202,56.27734375
0,1,11.586144,54718126,949130,1715,0,0,184.062484741211,2051.9921875,124.86572265625,-1.45962178707123,0.129212439060211,12.7681016921997,0.0378736443817616,0.0378736443817616,-0.040317103266716,56.25
0,1,11.626176,54760670,949867,1739,0,0,182.890625,2052.03125,124.862670898438,-2.46460747718811,3.15852618217468,6.88175821304321,-0.0623082555830479,-0.0623082555830479,0.0464257597923279,56.28515625
0,1,11.712155,54801150,950553,1692,0,0,182.851547241211,2052.1484375,124.856567382813,-17.7643165588379,0.74656069278717,10.2412815093994,0.280998021364212,0.280998021364212,-0.0635299831628799,56.234375
0,1,11.714156,54841310,951250,1687,0,0,182.851547241211,2052.265625,124.86572265625,1.55054903030396,2.29232406616211,5.43649244308472,-0.01588249579072,-0.01588249579072,0.0708603635430336,56.26171875
0,1,11.749164,54884347,951989,1770,0,0,182.890625,2051.9921875,124.86572265625,-0.708275496959686,1.7898313999176,3.97208571434021,-0.0232128798961639,-0.0232128798961639,0.0464257597923279,56.1796875
0,1,11.791173,54924649,952682,1717,0,0,184.062484741211,2052.0703125,124.8779296875,5.04885578155518,-0.875773072242737,6.44626426696777,0.0464257597923279,0.0464257597923279,0.114842668175697,56.2421875
0,1,11.837188,54967262,953431,1777,0,0,184.140625,2052.03125,124.862670898438,2.46939301490784,-0.870987474918365,11.5190477371216,0.0537561401724815,0.0537561401724815,-0.0952949747443199,56.81640625
0,1,11.875193,55010498,954176,1724,0,0,183.515609741211,2048.94506835938,124.70703125,-6.66161870956421,-0.244067922234535,14.05544090271,-0.0232128798961639,-0.0232128798961639,-0.102625355124474,56.30078125
0,1,11.921205,55053068,954928,1707,0,0,184.648422241211,2048.75,124.688720703125,-5.03928470611572,-0.521635353565216,5.73320293426514,0.0378736443817616,0.0378736443817616,0,56.26171875
0,1,11.967216,55097289,955718,1844,0,0,183.515609741211,2049.21875,124.69482421875,-7.85802984237671,-2.31625247001648,9.22672462463379,0.0232128798961639,0.0232128798961639,0.117286123335361,56.27734375
0,1,12.050233,55140438,956476,1744,0,0,182.382797241211,2048.67163085938,124.691772460938,-4.34057998657227,2.57467722892761,14.9694976806641,0.0464257597923279,0.0464257597923279,-0.056199599057436,56.3671875
0,1,12.053235,55181223,957199,1740,0,0,183.554672241211,2048.6328125,124.70703125,-9.18365287780762,-0.0239282269030809,9.62871837615967,0.0378736443817616,0.0378736443817616,0.117286123335361,56.328125
0,1,12.093242,55222559,957918,1761,0,0,183.4375,2048.515625,124.679565429688,-8.15473937988281,4.19701099395752,6.86261510848999,-0.03176499158144,-0.03176499158144,-0.00855211354792118,56.30859375
0,1,12.143257,55266080,958682,1721,0,0,183.0078125,2048.59375,124.685668945313,6.19262504577637,-3.4360933303833,6.4845495223999,0.0464257597923279,0.0464257597923279,0.0549778714776039,56.34765625
0,1,12.178261,55306218,959381,1776,0,0,182.34375,2049.1015625,124.697875976563,4.51764869689941,2.13918328285217,13.3758783340454,0.00733038270846009,0.00733038270846009,0.117286123335361,56.33984375
0,1,12.216355,55347532,960086,1710,0,0,183.3203125,2049.0625,124.691772460938,16.285551071167,2.01954245567322,6.19741058349609,0,0,-0.12705996632576,58.8828125
0,1,12.262991,55390704,960836,1695,0,0,183.398422241211,2048.59375,124.6826171875,-4.01994228363037,1.01455676555634,9.6670036315918,-0.0232128798961639,-0.0232128798961639,-0.0952949747443199,59.4296875
0,1,12.308002,55431432,961527,1717,0,0,182.265609741211,2048.7109375,124.697875976563,-3.98644232749939,3.08674120903015,4.83828783035278,-0.00855211354792118,-0.00855211354792118,-0.0952949747443199,56.30078125
0,1,12.397337,55474375,962261,1696,0,0,182.3046875,2049.0234375,124.697875976563,3.70408964157104,1.14376926422119,4.31665182113647,0.0305432621389627,0.0305432621389627,-0.0867428630590439,56.32421875
0,1,12.400042,55519689,963052,1757,0,0,181.09375,2048.515625,124.679565429688,-3.41695070266724,1.82333087921143,10.810772895813,-0.312763005495071,-0.312763005495071,0.00733038270846009,56.30078125
0,1,12.432029,55562007,963769,1682,0,0,182.3046875,2048.4765625,124.6826171875,0.0382851622998714,2.46939301490784,8.00638484954834,0.0537561401724815,0.0537561401724815,0.0146607654169202,56.30859375
0,1,12.475059,55603667,964488,1665,0,0,181.0546875,2048.7109375,124.688720703125,-3.8572301864624,-0.904487013816833,11.1984100341797,0.0696386322379112,0.0696386322379112,0.109955742955208,56.30859375
0,1,12.515067,55644561,965204,1810,0,0,181.09375,2048.6328125,124.688720703125,-8.37966537475586,0.564706087112427,5.0871410369873,0.0537561401724815,0.0537561401724815,-0.040317103266716,56.32421875
0,1,12.554073,55687543,965958,1750,0,0,181.015609741211,2048.984375,124.70703125,0.397208601236343,3.12024068832397,10.5523490905762,0.0146607654169202,0.0146607654169202,-0.11117747426033,56.2421875
0,1,12.605085,55730511,966716,1756,0,0,181.171859741211,2048.7890625,124.697875976563,-4.94835758209229,2.70867538452148,8.4227352142334,-0.03176499158144,-0.03176499158144,-0.040317103266716,56.28515625
0,1,12.645077,55771825,967428,1717,0,0,179.9609375,2048.984375,124.703979492188,1.18684005737305,-2.09611248970032,12.8255290985107,-0.01588249579072,-0.01588249579072,-0.157603219151497,56.33203125
0,1,12.711108,55813782,968164,1696,0,0,182.382797241211,2048.8671875,124.703979492188,3.4360933303833,-2.42632222175598,9.05444145202637,0.0305432621389627,0.0305432621389627,-0.040317103266716,56.3125
0,1,12.747105,55856933,968912,1787,0,0,181.171859741211,2048.94506835938,124.713134765625,-2.71824622154236,-1.37348020076752,8.27916622161865,0.0464257597923279,0.0464257597923279,0.0940732434391975,56.3125
0,1,12.768106,55900141,969655,1745,0,0,181.132797241211,2048.90600585938,124.713134765625,-9.12143898010254,4.2017970085144,13.0313119888306,-0.0390953756868839,-0.0390953756868839,0.117286123335361,56.28515625
0,1,12.808114,55943082,970413,1730,0,0,181.09375,2049.0234375,124.69482421875,-6.41276454925537,-0.301495641469955,15.3571367263794,0.0305432621389627,0.0305432621389627,0.0781907513737679,56.2421875
0,1,12.860146,55984347,971120,1721,0,0,181.09375,2048.7109375,124.700927734375,-0.751346230506897,5.25942420959473,9.60957527160645,-0.04764748737216,-0.04764748737216,0.0464257597923279,56.21875
0,1,12.910158,56027556,971862,1691,0,0,180.468734741211,2052.265625,124.856567382813,6.42233610153198,-2.58903384208679,3.83330178260803,0.100181899964809,0.100181899964809,-0.157603219151497,56.25390625
0,1,12.9415,56068192,972559,1753,0,0,180.546875,2052.10913085938,124.868774414063,-2.37846565246582,2.37846565246582,12.074182510376,-0.0623082555830479,-0.0623082555830479,0.0146607654169202,56.28515625
0,1,12.976997,56111656,973296,1716,0,0,182.890625,2052.1875,124.880981445313,14.4813623428345,1.65104758739471,11.3946208953857,0,0,-0.102625355124474,56.26953125
0,1,13.019003,56154796,974046,1691,0,0,181.679672241211,2052.3046875,124.868774414063,-1.7036896944046,0.191425815224648,9.93978500366211,0,0,0.0305432621389627,56.26171875
0,1,13.091002,56196003,974758,1763,0,0,180.546875,2052.1875,124.868774414063,-0.95234340429306,0.588634371757507,0.914058208465576,-0.0549778714776039,-0.0549778714776039,0.0146607654169202,56.20703125
0,1,13.109022,56238982,975509,1779,0,0,180.585922241211,2052.3046875,124.871826171875,2.12961220741272,-3.27338123321533,8.56151962280273,0.0537561401724815,0.0537561401724815,0.196698606014252,56.16796875
0,1,13.154018,56282032,976286,1805,0,0,181.640625,2052.2265625,124.871826171875,7.28375244140625,4.66121864318848,8.52323436737061,0.0232128798961639,0.0232128798961639,0.0708603635430336,56.25
0,1,13.195028,56324640,977038,1757,0,0,181.679672241211,2052.3046875,124.868774414063,-4.27836656570435,-1.37826585769653,11.0021982192993,-0.03176499158144,-0.03176499158144,0.0855211317539215,56.30078125
0,1,13.248059,56365920,977778,1743,0,0,181.7578125,2052.265625,124.871826171875,3.42173647880554,-2.92881488800049,4.77607440948486,0.0378736443817616,0.0378736443817616,-0.134390354156494,56.32421875
0,1,13.280053,56409020,978551,1837,0,0,180.5078125,2052.03125,124.853515625,-2.24925327301025,0.0957129076123238,14.6010036468506,0.0146607654169202,0.0146607654169202,-0.040317103266716,56.31640625
0,1,13.314052,56449824,979267,1745,0,0,179.218734741211,2052.0703125,124.862670898438,6.10169792175293,0.449850678443909,14.4000062942505,-0.289550095796585,-0.289550095796585,-0.03176499158144,56.30859375
0,1,13.361081,56492779,980025,1728,0,0,180.5078125,2051.953125,124.868774414063,-2.91445827484131,1.52183520793915,10.6959180831909,-0.03176499158144,-0.03176499158144,0.0855211317539215,56.30859375
0,1,13.443082,56537599,980807,1800,0,0,181.0546875,2051.953125,124.862670898438,6.24048137664795,0.899701356887817,6.49412059783936,0.0696386322379112,0.0696386322379112,0.0940732434391975,56.27734375
0,1,13.446083,56578177,981514,1736,0,0,181.679672241211,2052.0703125,124.86572265625,6.32183742523193,-3.50309228897095,10.2221384048462,-0.00855211354792118,-0.00855211354792118,-0.01588249579072,56.2265625
0,1,13.492115,56619579,982243,1776,0,0,180.5078125,2052.1875,124.8779296875,0,-1.52662086486816,14.3808641433716,0.0146607654169202,0.0146607654169202,-0.00855211354792118,56.28515625
0,1,13.525121,56660734,982951,1716,0,0,180.546875,2052.421875,124.8779296875,6.96311378479004,0.172283232212067,10.1312122344971,-0.0549778714776039,-0.0549778714776039,0.0146607654169202,56.26171875
0,1,13.570396,56703474,983702,1702,0,0,181.7578125,2052.34350585938,124.871826171875,-4.29750919342041,1.08155596256256,10.8969144821167,-0.03176499158144,-0.03176499158144,0.0390953756868839,56.33203125
0,1,13.612408,56746220,984438,1780,0,0,180.5078125,2051.9140625,124.8779296875,10.6528453826904,-1.15812623500824,10.0546407699585,0.0146607654169202,0.0146607654169202,-0.00855211354792118,56.30078125
0,1,13.656417,56786954,985134,1695,0,0,180.468734741211,2052.3046875,124.8779296875,1.53140652179718,1.47876441478729,12.6053895950317,-0.00855211354792118,-0.00855211354792118,-0.0244346093386412,56.80078125
0,1,13.701431,56828441,985844,1726,0,0,180.546875,2052.1484375,124.86572265625,-1.72761797904968,1.74197494983673,8.71944522857666,-0.01588249579072,-0.01588249579072,-0.04764748737216,56.33203125
0,1,13.794468,56869797,986537,1682,0,0,181.640625,2052.10913085938,124.86572265625,8.88694381713867,1.05762755870819,10.1790676116943,0.0537561401724815,0.0537561401724815,-0.040317103266716,56.30078125
0,1,13.796469,56910264,987235,1676,0,0,182.851547241211,2051.953125,124.862670898438,-7.26460933685303,-1.54097783565521,6.37447929382324,-0.0708603635430336,-0.0708603635430336,0.0146607654169202,56.3671875
0,1,13.825475,56952917,987976,1792,0,0,182.890625,2052.1875,124.86572265625,9.67657566070557,4.16829681396484,-0.875773072242737,0.0464257597923279,0.0464257597923279,-0.14294245839119,56.3125
0,1,13.861483,56997615,988761,1759,0,0,181.679672241211,2052.2265625,124.874877929688,-1.9860428571701,4.5894341468811,11.4424772262573,0.0146607654169202,0.0146607654169202,-0.118507854640484,56.34765625
0,1,13.911493,57040167,989519,1774,0,0,182.34375,2049.17944335938,124.716186523438,-0.866201817989349,2.47896409034729,8.24566745758057,-0.00855211354792118,-0.00855211354792118,-0.182037845253944,56.34375
0,1,13.950486,57080755,990230,1755,0,0,181.015609741211,2048.828125,124.69482421875,-1.24426782131195,-2.37368011474609,10.1599254608154,-0.00855211354792118,-0.00855211354792118,0.00733038270846009,56.34375
0,1,14.015517,57148144,991429,1743,0,0,181.132797241211,2048.59375,124.703979492188,4.29272365570068,-3.66580438613892,9.93021392822266,-0.01588249579072,-0.01588249579072,0.0549778714776039,56.4140625
0,1,14.132544,57216040,992638,1759,0,0,182.226531982422,2048.75,124.691772460938,0.698704242706299,-2.29232406616211,10.3082790374756,-0.04764748737216,-0.04764748737216,-0.0794124826788902,56.46875
0,1,14.135544,57257298,993380,1745,0,0,182.3046875,2048.7109375,124.703979492188,2.09132695198059,-1.18205440044403,4.22093963623047,0.116064392030239,0.116064392030239,-0.134390354156494,56.484375
0,1,14.164534,57299986,994137,1820,0,0,181.171859741211,2049.2578125,124.71923828125,-9.51386260986328,-0.631705224514008,12.0502557754517,0.0464257597923279,0.0464257597923279,0.0305432621389627,59.4765625
0,1,14.207667,57340209,994839,1749,0,0,181.09375,2048.90600585938,124.697875976563,7.57089042663574,0.70348984003067,10.3609218597412,-0.251676470041275,-0.251676470041275,0.0623082555830479,56.4453125
0,1,14.254676,57383059,995596,1736,0,0,182.3046875,2048.8671875,124.710083007813,7.2741813659668,0.124426774680614,9.57607650756836,0.0146607654169202,0.0146607654169202,0.00733038270846009,56.4453125
0,1,14.305672,57424925,996316,1736,0,0,182.382797241211,2048.90600585938,124.716186523438,-2.68474698066711,2.84267330169678,7.6809606552124,-0.0549778714776039,-0.0549778714776039,0.0146607654169202,56.46875
0,1,14.340675,57467677,997058,1704,0,0,181.0546875,2048.5546875,124.691772460938,-0.502492785453796,-1.63190507888794,2.96710014343262,0.0232128798961639,0.0232128798961639,0.0146607654169202,56.421875
0,1,14.374704,57510495,997804,1771,0,0,182.3046875,2048.7109375,124.703979492188,5.28813791275024,-2.79960250854492,14.4239358901978,-0.03176499158144,-0.03176499158144,0.210137635469437,56.453125
0,1,14.435817,57551896,998506,1682,0,0,182.265609741211,2049.0625,124.703979492188,13.8831567764282,-0.430708110332489,6.6185474395752,0,0,0.0305432621389627,56.4453125
0,1,14.484828,57594459,999237,1673,0,0,182.3046875,2049.0625,124.713134765625,-2.00039982795715,0.291924357414246,7.25025224685669,0.0305432621389627,0.0305432621389627,-0.150272846221924,56.4453125
0,1,14.503833,57637306,999972,1765,0,0,182.3046875,2048.5546875,124.691772460938,5.37427949905396,2.15354061126709,0.813559710979462,0.0928515195846558,0.0928515195846558,0.0781907513737679,56.453125
0,1,14.54784,57680037,1000711,1723,0,0,182.382797241211,2048.7890625,124.703979492188,1.36390888690948,-3.2973096370697,12.4857492446899,-0.03176499158144,-0.03176499158144,0.0146607654169202,56.4140625
0,1,14.595852,57720793,1001422,1764,0,0,182.265609741211,2048.7890625,124.700927734375,5.51784896850586,-3.51744914054871,10.9256277084351,-0.0623082555830479,-0.0623082555830479,-0.0952949747443199,56.4375
0,1,14.641875,57763758,1002160,1727,0,0,183.554672241211,2049.296875,124.703979492188,0,0,0,0,0,0,25
0,1,14.674888,57804546,1002880,1712,0,0,182.265609741211,2048.43725585938,124.700927734375,0.550349175930023,1.22512519359589,9.99242782592773,0.0305432621389627,0.0305432621389627,-0.04764748737216,56.40625
0,1,14.712048,57847073,1003629,1817,0,0,182.3046875,2048.75,124.703979492188,-2.71346092224121,2.16789722442627,6.4845495223999,-0.0232128798961639,-0.0232128798961639,-0.173485726118088,56.40625
0,1,14.753054,57887941,1004347,1759,0,0,183.4765625,2048.7109375,124.700927734375,-3.90508675575256,-0.234496623277664,14.0745830535889,0,0,-0.00855211354792118,56.390625
0,1,14.833069,57929914,1005092,1775,0,0,182.3046875,2048.515625,124.69482421875,1.93340075016022,6.23569583892822,8.40359401702881,-0.0623082555830479,-0.0623082555830479,0.0549778714776039,56.390625
0,1,14.837073,57970734,1005804,1741,0,0,182.265609741211,2048.90600585938,124.70703125,3.31645226478577,-0.138783723115921,11.5669040679932,-0.01588249579072,-0.01588249579072,0.0549778714776039,56.4296875
0,1,14.88108,58011720,1006535,1727,0,0,182.7734375,2052.1875,124.86572265625,-2.88095855712891,1.25862467288971,5.01057100296021,0.0305432621389627,0.0305432621389627,0.0305432621389627,56.4296875
0,1,14.930091,58054305,1007279,1802,0,0,182.929672241211,2051.953125,124.8779296875,-4.17786884307861,-2.27796721458435,11.4472637176514,-0.01588249579072,-0.01588249579072,0.00733038270846009,56.3984375
0,1,14.966101,58096764,1008011,1721,0,0,182.929672241211,2052.10913085938,124.8779296875,3.00059962272644,3.18245410919189,5.73320293426514,-0.04764748737216,-0.04764748737216,0.141720727086067,56.4140625
0,1,15.005108,58137743,1008724,1726,0,0,182.890625,2052.1875,124.871826171875,-1.66540467739105,1.23469650745392,11.5669040679932,0.0146607654169202,0.0146607654169202,0.0623082555830479,56.40625
0,1,15.043117,58178607,1009415,1681,0,0,182.929672241211,2052.1875,124.874877929688,-5.53699159622192,0.282353043556213,13.4524488449097,0.0305432621389627,0.0305432621389627,-0.040317103266716,56.4140625
0,1,15.096129,58223113,1010180,1665,0,0,182.929672241211,2051.484375,124.847412109375,2.82353067398071,-3.8859441280365,14.2516527175903,-0.00855211354792118,-0.00855211354792118,0,56.3984375
0,1,15.19115,58264254,1010891,1784,0,0,182.890625,2052.421875,124.86572265625,0,0,0,0,0,0,25
0,1,15.194153,58306779,1011618,1730,0,0,182.929672241211,2052.65625,124.871826171875,0,0,0,0,0,0,25
0,1,15.212155,58347577,1012332,1732,0,0,182.929672241211,2052.65625,124.871826171875,0,0,0,0,0,0,25
0,1,15.26017,58390431,1013075,1754,0,0,184.062484741211,2052.34350585938,124.874877929688,0,0,0,0,0,0,25
0,1,15.305155,58431135,1013799,1725,0,0,182.890625,2052.5390625,124.874877929688,0,0,0,0,0,0,25
0,1,15.353168,58471229,1014504,1814,0,0,182.929672241211,2052.4609375,124.862670898438,0,0,0,0,0,0,25
0,1,15.386175,58514027,1015248,1748,0,0,182.890625,2052.65625,124.884033203125,0,0,0,0,0,0,25
0,1,15.421153,58556760,1016005,1739,0,0,182.929672241211,2052.265625,124.874877929688,0,0,0,0,0,0,25
0,1,15.529176,58599835,1016753,1768,0,0,182.890625,2052.4609375,124.8779296875,0,0,0,0,0,0,25
0,1,15.533178,58642718,1017500,1710,0,0,182.968734741211,2052.3828125,124.8779296875,0,0,0,0,0,0,25
0,1,15.552183,58687357,1018265,1721,0,0,181.7578125,2052.5,124.874877929688,0,0,0,0,0,0,25
0,1,15.596204,58730645,1018990,1668,0,0,181.679672241211,2052.3828125,124.880981445313,0,0,0,0,0,0,25
0,1,15.648221,58773480,1019721,1645,0,0,182.929672241211,2052.6171875,124.89013671875,0,0,0,0,0,0,25
0,1,15.690403,58813593,1020409,1768,0,0,182.734375,2051.9921875,124.84130859375,0,0,0,0,0,0,25
0,1,15.72639,58856265,1021145,1770,0,0,182.851547241211,2052.5,124.86572265625,0,0,0,0,0,0,25
0,1,15.763421,58899059,1021908,1776,0,0,182.851547241211,2052.34350585938,124.871826171875,0,0,0,0,0,0,25
0,1,15.805429,58941011,1022640,1736,0,0,181.718734741211,2052.3046875,124.8779296875,0,0,0,0,0,0,25
0,1,15.880445,58981765,1023361,1714,0,0,182.851547241211,2052.5390625,124.862670898438,0,0,0,0,0,0,25
0,1,15.89543,59024712,1024122,1823,0,0,182.34375,2049.0625,124.710083007813,0,0,0,0,0,0,25
0,1,15.930461,59066683,1024852,1734,0,0,181.132797241211,2049.41381835938,124.70703125,0,0,0,0,0,0,25
0,1,15.979468,59108246,1025582,1727,0,0,182.382797241211,2049.0625,124.70703125,0,0,0,0,0,0,25
0,1,16.033461,59157010,1026420,1777,0,0,182.3046875,2048.90600585938,124.691772460938,0,0,0,0,0,0,25
0,1,16.066469,59199488,1027147,1709,0,0,182.265609741211,2048.94506835938,124.697875976563,0,0,0,0,0,0,25
0,1,16.104476,59239693,1027841,1739,0,0,181.09375,2049.3359375,124.710083007813,0,0,0,0,0,0,25
0,1,16.146502,59280897,1028539,1697,0,0,181.09375,2049.296875,124.710083007813,0,0,0,0,0,0,25
0,1,16.229508,59323881,1029283,1677,0,0,181.09375,2049.0234375,124.710083007813,0,0,0,0,0,0,25
0,1,16.232507,59366729,1030034,1814,0,0,182.226531982422,2049.0234375,124.69482421875,0,0,0,0,0,0,25
0,1,16.334939,59463692,1031742,1721,0,0,182.3046875,2049.2578125,124.710083007813,0,0,0,0,0,0,25
0,1,16.389949,59505748,1032490,1835,0,0,182.34375,2049.53125,124.71923828125,0,0,0,0,0,0,25
0,1,16.410957,59546445,1033203,1746,0,0,181.171859741211,2049.296875,124.71923828125,0,0,0,0,0,0,25
0,1,16.453985,59587460,1033926,1751,0,0,182.382797241211,2049.296875,124.71923828125,0,0,0,0,0,0,25
0,1,16.494989,59630260,1034666,1733,0,0,182.3046875,2048.90600585938,124.713134765625,0,0,0,0,0,0,25
0,1,16.56701,59673037,1035418,1706,0,0,182.265609741211,2048.90600585938,124.703979492188,0,0,0,0,0,0,25
0,1,16.583995,59714047,1036124,1769,0,0,181.132797241211,2049.17944335938,124.700927734375,0,0,0,0,0,0,25
0,1,16.628051,59756778,1036843,1668,0,0,181.2109375,2049.609375,124.70703125,0,0,0,0,0,0,25
0,1,16.674014,59798075,1037539,1663,0,0,182.3046875,2049.0234375,124.691772460938,0,0,0,0,0,0,25
0,1,16.725026,59840545,1038255,1703,0,0,182.421859741211,2049.64819335938,124.703979492188,0,0,0,0,0,0,25
0,1,16.751032,59883545,1039003,1701,0,0,182.226531982422,2049.140625,124.713134765625,0,0,0,0,0,0,25
0,1,16.796041,59923852,1039725,1843,0,0,181.2109375,2049.1015625,124.70703125,0,0,0,0,0,0,25
0,1,16.831053,59966814,1040488,1788,0,0,179.9609375,2049.2578125,124.716186523438,0,0,0,0,0,0,25
0,1,16.921086,60009320,1041258,1771,0,0,178.085922241211,2052.4609375,124.880981445313,0,0,0,0,0,0,25
0,1,16.924091,60052638,1042029,1826,0,0,176.875,2052.6953125,124.887084960938,0,0,0,0,0,0,25
0,1,16.965096,60095314,1042785,1778,0,0,178.046859741211,2052.4609375,124.8779296875,0,0,0,0,0,0,25
0,1,17.014111,60138393,1043554,1764,0,0,178.1640625,2052.7734375,124.887084960938,0,0,0,0,0,0,25
0,1,17.051101,60179345,1044266,1733,0,0,178.085922241211,2052.57788085938,124.887084960938,0,0,0,0,0,0,25
0,1,17.086123,60222335,1045021,1716,0,0,176.9140625,2052.34350585938,124.887084960938,0,0,0,0,0,0,25
0,1,17.13512,60266055,1045789,1787,0,0,176.9140625,2052.4609375,124.8779296875,0,0,0,0,0,0,25
0,1,17.179129,60306941,1046488,1696,0,0,176.9140625,2052.5390625,124.880981445313,0,0,0,0,0,0,25
0,1,17.25815,60349872,1047227,1682,0,0,176.953109741211,2052.6953125,124.884033203125,0,0,0,0,0,0,25
0,1,17.274153,60391041,1047919,1701,0,0,178.1640625,2052.85131835938,124.893188476563,0,0,0,0,0,0,25
0,1,17.308158,60433825,1048647,1691,0,0,178.203109741211,2052.6953125,124.884033203125,0,0,0,0,0,0,25
0,1,17.346166,60476827,1049400,1781,0,0,178.203109741211,2052.421875,124.8779296875,0,0,0,0,0,0,25
0,1,17.392197,60518964,1050128,1739,0,0,178.1640625,2052.81225585938,124.89013671875,0,0,0,0,0,0,25
0,1,17.441204,60559333,1050844,1729,0,0,178.1640625,2052.6171875,124.893188476563,0,0,0,0,0,0,25
0,1,17.474211,60601947,1051590,1799,0,0,177.968734741211,2052.5,124.884033203125,0,0,0,0,0,0,25
0,1,17.508223,60644195,1052334,1772,0,0,178.125,2052.5390625,124.89013671875,0,0,0,0,0,0,25
0,1,17.587316,60687078,1053105,1794,0,0,176.796859741211,2052.265625,124.8779296875,0,0,0,0,0,0,25
0,1,17.625235,60732960,1053905,1752,0,0,178.5546875,2052.34350585938,124.871826171875,0,0,0,0,0,0,25
0,1,17.644236,60775330,1054651,1729,0,0,176.992172241211,2052.3828125,124.884033203125,0,0,0,0,0,0,25
0,1,17.687265,60816101,1055372,1803,0,0,178.085922241211,2052.3828125,124.874877929688,0,0,0,0,0,0,25
0,1,17.732274,60857822,1056095,1733,0,0,178.125,2052.65625,124.884033203125,0,0,0,0,0,0,25
0,1,17.780287,60900852,1056853,1719,0,0,176.953109741211,2052.6171875,124.884033203125,0,0,0,0,0,0,25
0,1,17.817278,60943652,1057602,1802,0,0,176.875,2052.57788085938,124.887084960938,0,0,0,0,0,0,25
0,1,17.855297,60985655,1058336,1737,0,0,178.085922241211,2052.421875,124.8779296875,0,0,0,0,0,0,25
0,1,17.89231,61028216,1059082,1754,0,0,177.499984741211,2049.17944335938,124.713134765625,0,0,0,0,0,0,25
0,1,17.978742,61069474,1059786,1694,0,0,176.328125,2049.41381835938,124.716186523438,0,0,0,0,0,0,25
0,1,17.982743,61111304,1060512,1679,0,0,177.539047241211,2049.2578125,124.697875976563,0,0,0,0,0,0,25
0,1,18.018752,61154293,1061255,1786,0,0,177.656234741211,2049.21875,124.713134765625,0,0,0,0,0,0,25
0,1,18.070768,61198855,1062018,1709,0,0,177.578125,2049.0625,124.70703125,0,0,0,0,0,0,25
0,1,18.114773,61242077,1062762,1698,0,0,176.328125,2049.1015625,124.70703125,0,0,0,0,0,0,25
0,1,18.153782,61283981,1063477,1718,0,0,177.578125,2049.0625,124.710083007813,0,0,0,0,0,0,25
0,1,18.19081,61326828,1064223,1713,0,0,177.4609375,2049.2578125,124.716186523438,0,0,0,0,0,0,25
0,1,18.235815,61369148,1064980,1824,0,0,177.6171875,2049.3359375,124.713134765625,0,0,0,0,0,0,25
0,1,18.275829,61411837,1065723,1719,0,0,177.539047241211,2049.1015625,124.716186523438,0,0,0,0,0,0,25
0,1,18.351826,61452398,1066434,1712,0,0,177.539047241211,2049.3359375,124.716186523438,0,0,0,0,0,0,25
0,1,18.365829,61495135,1067182,1800,0,0,177.539047241211,2049.53125,124.71923828125,0,0,0,0,0,0,25
0,1,18.411897,61541086,1067990,1747,0,0,176.328125,2048.7890625,124.69482421875,0,0,0,0,0,0,25
0,1,18.458891,61583690,1068741,1748,0,0,178.671859741211,2049.1015625,124.70703125,0,0,0,0,0,0,25
0,1,18.505907,61626397,1069474,1720,0,0,178.7109375,2048.90600585938,124.697875976563,0,0,0,0,0,0,25
0,1,18.531908,61667137,1070185,1691,0,0,177.499984741211,2049.2578125,124.713134765625,0,0,0,0,0,0,25
0,1,18.578919,61709717,1070930,1802,0,0,177.578125,2048.94506835938,124.716186523438,0,0,0,0,0,0,25
0,1,18.617951,61752576,1071663,1692,0,0,176.367156982422,2049.0625,124.713134765625,0,0,0,0,0,0,25
0,1,18.705949,61795478,1072400,1683,0,0,177.421875,2049.17944335938,124.70703125,0,0,0,0,0,0,25
0,1,18.708964,61836185,1073085,1698,0,0,177.539047241211,2049.0234375,124.710083007813,0,0,0,0,0,0,25
0,1,18.743973,61878872,1073818,1675,0,0,177.539047241211,2049.0234375,124.716186523438,0,0,0,0,0,0,25
0,1,18.78497,61919663,1074530,1795,0,0,176.289047241211,2049.17944335938,124.713134765625,0,0,0,0,0,0,25
0,1,18.828991,61962212,1075266,1759,0,0,176.367156982422,2049.140625,124.725341796875,0,0,0,0,0,0,25
0,1,18.880007,62006854,1076061,1737,0,0,176.9140625,2052.57788085938,124.884033203125,0,0,0,0,0,0,25
0,1,18.912994,62048719,1076804,1827,0,0,176.953109741211,2052.6171875,124.887084960938,0,0,0,0,0,0,25
0,1,18.959027,62089501,1077529,1769,0,0,178.203109741211,2052.6171875,124.89013671875,0,0,0,0,0,0,25
0,1,19.045045,62130327,1078259,1799,0,0,176.9140625,2052.2265625,124.8779296875,0,0,0,0,0,0,25
0,1,19.048045,62173048,1079007,1738,0,0,177.773422241211,2052.34350585938,124.884033203125,0,0,0,0,0,0,25
0,1,19.080048,62215605,1079762,1723,0,0,179.296844482422,2052.81225585938,124.905395507813,0,0,0,0,0,0,25
0,1,19.121062,62256667,1080480,1798,0,0,178.125,2052.6953125,124.887084960938,0,0,0,0,0,0,25
0,1,19.169068,62297207,1081179,1725,0,0,178.085922241211,2052.890625,124.893188476563,0,0,0,0,0,0,25
0,1,19.202695,62337933,1081886,1735,0,0,179.2578125,2052.5390625,124.880981445313,0,0,0,0,0,0,25
0,1,19.248712,62378904,1082586,1711,0,0,178.125,2052.4609375,124.887084960938,0,0,0,0,0,0,25
0,1,19.285712,62421551,1083333,1695,0,0,179.335922241211,2052.5,124.887084960938,0,0,0,0,0,0,25
0,1,19.402737,62466021,1084105,1792,0,0,178.085922241211,2052.5390625,124.887084960938,0,0,0,0,0,0,25
0,1,19.405748,62508863,1084841,1733,0,0,178.046859741211,2052.5,124.89013671875,0,0,0,0,0,0,25
0,1,19.419735,62553370,1085621,1717,0,0,179.296844482422,2054.29663085938,124.89013671875,0,0,0,0,0,0,25
0,1,19.469747,62596954,1086367,1749,0,0,179.335922241211,2052.57788085938,124.89013671875,0,0,0,0,0,0,25
0,1,19.511756,62639702,1087101,1714,0,0,179.375,2052.265625,124.887084960938,0,0,0,0,0,0,25
0,1,19.551767,62682258,1087843,1757,0,0,179.375,2052.6953125,124.884033203125,0,0,0,0,0,0,25
0,1,19.588773,62723462,1088542,1683,0,0,179.296844482422,2051.953125,124.86572265625,0,0,0,0,0,0,25
0,1,19.635783,62766213,1089277,1665,0,0,179.2578125,2052.1875,124.884033203125,0,0,0,0,0,0,25
0,1,19.673793,62808902,1090021,1801,0,0,179.296844482422,2052.1875,124.880981445313,0,0,0,0,0,0,25
0,1,19.763815,62850026,1090736,1736,0,0,178.085922241211,2052.5390625,124.884033203125,0,0,0,0,0,0,25
0,1,19.767815,62892907,1091487,1752,0,0,178.046859741211,2052.57788085938,124.89013671875,0,0,0,0,0,0,25
0,1,19.800824,62936030,1092232,1736,0,0,178.046859741211,2052.4609375,124.887084960938,0,0,0,0,0,0,25
0,1,19.883845,63011819,1093560,1753,0,0,179.2578125,2052.10913085938,124.871826171875,0,0,0,0,0,0,25
0,1,19.942869,63078646,1094706,1710,0,0,178.7109375,2048.7890625,124.710083007813,0,0,0,0,0,0,25
0,1,19.991881,63120244,1095420,1684,0,0,178.749984741211,2049.3359375,124.716186523438,0,0,0,0,0,0,25
0,1,20.02661,63162104,1096153,1791,0,0,177.578125,2049.21875,124.71923828125,0,0,0,0,0,0,25
0,1,20.111632,63204637,1096893,1771,0,0,177.578125,2049.21875,124.722290039063,0,0,0,0,0,0,25
0,1,20.113633,63247344,1097658,1749,0,0,177.499984741211,2049.2578125,124.728393554688,0,0,0,0,0,0,25
0,1,20.158662,63289942,1098412,1817,0,0,177.539047241211,2049.21875,124.722290039063,0,0,0,0,0,0,25
0,1,20.208673,63331149,1099138,1745,0,0,178.749984741211,2049.0625,124.716186523438,0,0,0,0,0,0,25
0,1,20.245681,63374120,1099891,1753,0,0,177.539047241211,2048.90600585938,124.725341796875,0,0,0,0,0,0,25
0,1,20.285695,63417988,1100646,1718,0,0,177.539047241211,2049.4921875,124.728393554688,0,0,0,0,0,0,25
0,1,20.32368,63459075,1101365,1697,0,0,178.7109375,2049.21875,124.71923828125,0,0,0,0,0,0,25
0,1,20.378691,63501919,1102103,1769,0,0,178.671859741211,2049.0625,124.716186523438,0,0,0,0,0,0,25
0,1,20.473718,63542620,1102790,1686,0,0,177.4609375,2049.375,124.725341796875,0,0,0,0,0,0,25
0,1,20.476716,63585198,1103511,1682,0,0,178.671859741211,2049.0625,124.722290039063,0,0,0,0,0,0,25
0,1,20.494717,63628173,1104237,1706,0,0,178.7109375,2049.453125,124.716186523438,0,0,0,0,0,0,25
0,1,20.539729,63671655,1104996,1693,0,0,177.539047241211,2049.17944335938,124.71923828125,0,0,0,0,0,0,25
0,1,20.587738,63713178,1105726,1810,0,0,177.578125,2049.140625,124.7314453125,0,0,0,0,0,0,25
0,1,20.631769,63761669,1106573,1752,0,0,178.59375,2048.94506835938,124.697875976563,0,0,0,0,0,0,25
0,1,20.668779,63804118,1107333,1736,0,0,178.789047241211,2049.140625,124.713134765625,0,0,0,0,0,0,25
0,1,20.720789,63847039,1108093,1825,0,0,178.671859741211,2049.140625,124.716186523438,0,0,0,0,0,0,25
0,1,20.789885,63888107,1108816,1787,0,0,177.578125,2049.21875,124.722290039063,0,0,0,0,0,0,25
0,1,20.825813,63928761,1109549,1786,0,0,178.749984741211,2049.2578125,124.7314453125,0,0,0,0,0,0,25
0,1,20.841818,63970517,1110280,1745,0,0,178.789047241211,2049.5703125,124.7314453125,0,0,0,0,0,0,25
0,1,20.876824,64012606,1111023,1726,0,0,178.085922241211,2052.6953125,124.89013671875,0,0,0,0,0,0,25
0,1,20.930836,64055406,1111779,1799,0,0,178.085922241211,2052.5,124.89013671875,0,0,0,0,0,0,25
0,1,20.974847,64099417,1112540,1719,0,0,179.375,2052.65625,124.896240234375,0,0,0,0,0,0,25
0,1,21.012855,64139778,1113249,1711,0,0,178.046859741211,2052.3828125,124.887084960938,0,0,0,0,0,0,25
0,1,21.049865,64181682,1113963,1728,0,0,179.375,2052.6953125,124.896240234375,0,0,0,0,0,0,25
0,1,21.087876,64222842,1114664,1690,0,0,179.335922241211,2052.3046875,124.89013671875,0,0,0,0,0,0,25
0,1,21.177875,64263412,1115362,1758,0,0,178.085922241211,2052.4609375,124.896240234375,0,0,0,0,0,0,25
0,1,21.180875,64306238,1116087,1705,0,0,178.046859741211,2052.3828125,124.89013671875,0,0,0,0,0,0,25
0,1,21.212883,64349048,1116828,1685,0,0,178.0078125,2052.10913085938,124.862670898438,0,0,0,0,0,0,25
0,1,21.253893,64389860,1117541,1786,0,0,178.085922241211,2052.81225585938,124.899291992188,0,0,0,0,0,0,25
0,1,21.302899,64431122,1118273,1766,0,0,175.820297241211,2052.6953125,124.905395507813,0,0,0,0,0,0,25
0,1,21.340908,64473785,1119045,1827,0,0,175.703109741211,2052.5390625,124.896240234375,0,0,0,0,0,0,25
0,1,21.391291,64516931,1119803,1733,0,0,175.703109741211,2052.6171875,124.89013671875,0,0,0,0,0,0,25
0,1,21.4343,64559910,1120565,1723,0,0,176.953109741211,2052.65625,124.899291992188,0,0,0,0,0,0,25
0,1,21.533326,64601452,1121309,1843,0,0,175.703109741211,2052.6953125,124.899291992188,0,0,0,0,0,0,25
0,1,21.536324,64644575,1122067,1744,0,0,175.703109741211,2052.265625,124.887084960938,0,0,0,0,0,0,25
0,1,21.554343,64689400,1122856,1717,0,0,175.6640625,2052.3046875,124.896240234375,0,0,0,0,0,0,25
0,1,21.599336,64732760,1123612,1797,0,0,176.953109741211,2052.85131835938,124.896240234375,0,0,0,0,0,0,25
0,1,21.650348,64775856,1124362,1741,0,0,175.820297241211,2052.734375,124.899291992188,0,0,0,0,0,0,25
0,1,21.682355,64817610,1125096,1754,0,0,175.6640625,2052.0703125,124.86572265625,0,0,0,0,0,0,25
0,1,21.730387,64860865,1125833,1694,0,0,176.953109741211,2052.5390625,124.899291992188,0,0,0,0,0,0,25
0,1,21.777384,64904060,1126581,1671,0,0,176.992172241211,2052.890625,124.899291992188,0,0,0,0,0,0,25
0,1,21.881403,64947075,1127319,1770,0,0,176.992172241211,2052.34350585938,124.896240234375,0,0,0,0,0,0,25
0,1,21.884402,64988035,1128011,1706,0,0,176.953109741211,2052.7734375,124.899291992188,0,0,0,0,0,0,25
0,1,21.900425,65031190,1128757,1705,0,0,177.578125,2049.53125,124.734497070313,0,0,0,0,0,0,25
0,1,21.944419,65072508,1129468,1738,0,0,177.578125,2049.0234375,124.734497070313,0,0,0,0,0,0,25
0,1,21.987445,65115440,1130225,1718,0,0,177.695297241211,2049.3359375,124.740600585938,0,0,0,0,0,0,25
0,1,22.039458,65161975,1131044,1777,0,0,177.539047241211,2048.94506835938,124.70703125,0,0,0,0,0,0,25
0,1,22.07346,65202267,1131733,1699,0,0,178.7109375,2049.375,124.725341796875,0,0,0,0,0,0,25
0,1,22.108468,65243567,1132452,1694,0,0,176.328125,2049.0234375,124.722290039063,0,0,0,0,0,0,25
0,1,22.156486,65284845,1133165,1769,0,0,177.539047241211,2049.1015625,124.71923828125,0,0,0,0,0,0,25
0,1,22.249503,65327747,1133909,1726,0,0,177.499984741211,2048.90600585938,124.710083007813,0,0,0,0,0,0,25
0,1,22.252488,65370708,1134660,1756,0,0,177.539047241211,2049.453125,124.728393554688,0,0,0,0,0,0,25
0,1,22.281512,65411628,1135362,1719,0,0,177.539047241211,2049.0625,124.725341796875,0,0,0,0,0,0,25
0,1,22.325506,65452478,1136081,1706,0,0,176.328125,2049.1015625,124.722290039063,0,0,0,0,0,0,25
0,1,22.367515,65493814,1136799,1786,0,0,176.328125,2048.828125,124.716186523438,0,0,0,0,0,0,25
0,1,22.400521,65535202,1137519,1736,0,0,176.289047241211,2049.0625,124.713134765625,0,0,0,0,0,0,25
0,1,22.442528,65578164,1138273,1760,0,0,176.328125,2049.17944335938,124.737548828125,0,0,0,0,0,0,25
0,1,22.491559,65624413,1139062,1696,0,0,176.328125,2049.1015625,124.70703125,0,0,0,0,0,0,25
0,1,22.530551,65665912,1139776,1668,0,0,176.406234741211,2049.53125,124.737548828125,0,0,0,0,0,0,25
0,1,22.613572,65707626,1140497,1779,0,0,176.367156982422,2049.375,124.7314453125,0,0,0,0,0,0,25
0,1,22.616568,65751055,1141235,1707,0,0,176.367156982422,2049.0625,124.725341796875,0,0,0,0,0,0,25
0,1,22.660576,65793882,1141973,1692,0,0,176.367156982422,2049.0234375,124.71923828125,0,0,0,0,0,0,25
0,1,22.709603,65836591,1142714,1765,0,0,177.578125,2049.375,124.740600585938,0,0,0,0,0,0,25
0,1,22.788621,65877141,1143431,1728,0,0,176.367156982422,2049.2578125,124.7314453125,0,0,0,0,0,0,25
0,1,22.863624,65919710,1144172,1776,0,0,176.249984741211,2048.7109375,124.710083007813,0,0,0,0,0,0,25
0,1,22.873646,65960312,1144874,1760,0,0,176.249984741211,2048.94506835938,124.722290039063,0,0,0,0,0,0,25
0,1,22.959647,66004058,1145650,1732,0,0,176.796859741211,2052.1875,124.884033203125,0,0,0,0,0,0,25
0,1,22.96265,66046961,1146398,1785,0,0,176.9140625,2052.6953125,124.899291992188,0,0,0,0,0,0,25
0,1,22.965666,66091283,1147168,1739,0,0,176.9140625,2052.34350585938,124.899291992188,0,0,0,0,0,0,25
0,1,22.999655,66134061,1147918,1741,0,0,176.9140625,2052.5,124.893188476563,0,0,0,0,0,0,25
0,1,23.041664,66176627,1148641,1688,0,0,176.992172241211,2052.5,124.90234375,0,0,0,0,0,0,25
0,1,23.091675,66220080,1149390,1668,0,0,176.9140625,2052.1484375,124.880981445313,0,0,0,0,0,0,25
0,1,23.128703,66261865,1150111,1781,0,0,176.9140625,2052.65625,124.896240234375,0,0,0,0,0,0,25
0,1,23.176714,66304654,1150839,1711,0,0,176.9140625,2052.6953125,124.90234375,0,0,0,0,0,0,25
0,1,23.209722,66345189,1151543,1716,0,0,176.875,2052.6171875,124.89013671875,0,0,0,0,0,0,25
0,1,23.252732,66387950,1152281,1748,0,0,178.085922241211,2052.1484375,124.887084960938,0,0,0,0,0,0,25
0,1,23.339733,66435602,1153124,1760,0,0,178.046859741211,2052.5390625,124.893188476563,0,0,0,0,0,0,25
0,1,23.34375,66476400,1153854,1803,0,0,176.992172241211,2052.6953125,124.899291992188,0,0,0,0,0,0,25
0,1,23.388758,66518716,1154591,1728,0,0,178.085922241211,2052.10913085938,124.893188476563,0,0,0,0,0,0,25
0,1,23.433758,66559406,1155313,1718,0,0,178.046859741211,2052.0703125,124.8779296875,0,0,0,0,0,0,25
0,1,23.466776,66601977,1156071,1843,0,0,178.085922241211,2052.2265625,124.893188476563,0,0,0,0,0,0,25
0,1,23.512785,66644738,1156826,1762,0,0,178.046859741211,2052.1484375,124.896240234375,0,0,0,0,0,0,25
0,1,23.549779,66685422,1157550,1760,0,0,179.296844482422,2052.421875,124.896240234375,0,0,0,0,0,0,25
0,1,23.592809,66725440,1158241,1716,0,0,179.296844482422,2052.734375,124.893188476563,0,0,0,0,0,0,25
0,1,23.688814,66767555,1158977,1692,0,0,179.375,2052.34350585938,124.899291992188,0,0,0,0,0,0,25
0,1,23.69181,66808547,1159685,1780,0,0,179.335922241211,2052.6171875,124.899291992188,0,0,0,0,0,0,25
0,1,23.72182,66851166,1160409,1695,0,0,179.335922241211,2052.421875,124.908447265625,0,0,0,0,0,0,25
0,1,23.767829,66896747,1161186,1674,0,0,179.296844482422,2052.2265625,124.90234375,0,0,0,0,0,0,25
0,1,23.809839,66938923,1161891,1683,0,0,179.296844482422,2052.2265625,124.896240234375,0,0,0,0,0,0,25
0,1,23.847845,66979253,1162574,1648,0,0,179.218734741211,2052.1484375,124.887084960938,0,0,0,0,0,0,25
0,1,23.88586,67020366,1163295,1807,0,0,178.7109375,2049.0625,124.716186523438,0,0,0,0,0,0,25
0,1,23.941888,67063070,1164042,1788,0,0,177.539047241211,2049.3359375,124.7314453125,0,0,0,0,0,0,25
0,1,24.044112,67105718,1164809,1766,0,0,178.749984741211,2049.140625,124.722290039063,0,0,0,0,0,0,25
0,1,24.046912,67146375,1165529,1793,0,0,178.749984741211,2049.21875,124.7314453125,0,0,0,0,0,0,25
0,1,24.06091,67188923,1166289,1771,0,0,177.578125,2049.3359375,124.725341796875,0,0,0,0,0,0,25
0,1,24.093927,67229923,1167027,1820,0,0,177.578125,2049.453125,124.737548828125,0,0,0,0,0,0,25
0,1,24.142933,67270465,1167741,1754,0,0,178.7109375,2049.453125,124.7314453125,0,0,0,0,0,0,25
0,1,24.195946,67313314,1168507,1737,0,0,178.749984741211,2049.140625,124.734497070313,0,0,0,0,0,0,25
0,1,24.23043,67357524,1169299,1849,0,0,178.7109375,2048.984375,124.71923828125,0,0,0,0,0,0,25
0,1,24.265436,67400457,1170059,1773,0,0,176.289047241211,2049.0625,124.725341796875,0,0,0,0,0,0,25
0,1,24.312438,67442338,1170811,1762,0,0,178.789047241211,2049.17944335938,124.7314453125,0,0,0,0,0,0,25
0,1,24.403468,67485079,1171559,1779,0,0,177.4609375,2049.453125,124.725341796875,0,0,0,0,0,0,25
0,1,24.406469,67527332,1172299,1727,0,0,177.4609375,2049.0625,124.725341796875,0,0,0,0,0,0,25
0,1,24.437478,67570166,1173045,1755,0,0,177.6171875,2049.1015625,124.722290039063,0,0,0,0,0,0,25
0,1,24.481474,67610590,1173733,1692,0,0,177.4609375,2049.140625,124.725341796875,0,0,0,0,0,0,25
0,1,24.5255,67653533,1174474,1676,0,0,177.6171875,2049.1015625,124.74365234375,0,0,0,0,0,0,25
0,1,24.56549,67699499,1175259,1768,0,0,177.421875,2048.6328125,124.70703125,0,0,0,0,0,0,25
0,1,24.607501,67742483,1175988,1708,0,0,176.367156982422,2049.0625,124.725341796875,0,0,0,0,0,0,25
0,1,24.663516,67785342,1176725,1706,0,0,177.499984741211,2049.2578125,124.737548828125,0,0,0,0,0,0,25
0,1,24.691523,67826070,1177426,1736,0,0,177.539047241211,2049.21875,124.746704101563,0,0,0,0,0,0,25
0,1,24.771538,67868650,1178182,1722,0,0,177.539047241211,2049.375,124.734497070313,0,0,0,0,0,0,25
0,1,24.776538,67911607,1178941,1816,0,0,177.539047241211,2049.17944335938,124.737548828125,0,0,0,0,0,0,25
0,1,24.820547,67954850,1179691,1728,0,0,177.539047241211,2049.453125,124.737548828125,0,0,0,0,0,0,25
0,1,24.87156,67995625,1180410,1727,0,0,177.421875,2048.984375,124.722290039063,0,0,0,0,0,0,25
0,1,24.937578,68038693,1181160,1784,0,0,178.125,2052.734375,124.90234375,0,0,0,0,0,0,25
0,1,24.970597,68079613,1181877,1721,0,0,177.968734741211,2052.10913085938,124.8779296875,0,0,0,0,0,0,25
0,1,24.988606,68122434,1182624,1767,0,0,178.085922241211,2052.421875,124.89013671875,0,0,0,0,0,0,25
0,1,25.033616,68167591,1183396,1705,0,0,178.046859741211,2052.265625,124.89013671875,0,0,0,0,0,0,25
0,1,25.122619,68209977,1184137,1687,0,0,178.046859741211,2052.5390625,124.899291992188,0,0,0,0,0,0,25
0,1,25.125636,68251319,1184844,1765,0,0,178.085922241211,2052.5390625,124.90234375,0,0,0,0,0,0,25
0,1,25.156643,68292304,1185537,1689,0,0,178.085922241211,2052.34350585938,124.896240234375,0,0,0,0,0,0,25
0,1,25.199635,68335283,1186270,1709,0,0,178.125,2052.6171875,124.90234375,0,0,0,0,0,0,25
0,1,25.249647,68378201,1186997,1711,0,0,178.085922241211,2052.34350585938,124.90234375,0,0,0,0,0,0,25
0,1,25.293659,68419340,1187718,1693,0,0,179.2578125,2051.83569335938,124.874877929688,0,0,0,0,0,0,25
0,1,25.329661,68460768,1188460,1848,0,0,179.335922241211,2052.5,124.908447265625,0,0,0,0,0,0,25
0,1,25.366692,68501855,1189189,1769,0,0,178.1640625,2052.5390625,124.899291992188,0,0,0,0,0,0,25
0,1,25.406694,68542717,1189917,1773,0,0,177.968734741211,2052.6171875,124.905395507813,0,0,0,0,0,0,25
0,1,25.484719,68585810,1190667,1739,0,0,179.296844482422,2052.265625,124.90234375,0,0,0,0,0,0,25
0,1,25.499701,68630594,1191456,1734,0,0,178.125,2052.3046875,124.90234375,0,0,0,0,0,0,25
0,1,25.544713,68673819,1192220,1786,0,0,178.0078125,2052.3046875,124.899291992188,0,0,0,0,0,0,25
0,1,25.591745,68716018,1192945,1705,0,0,178.1640625,2052.6171875,124.911499023438,0,0,0,0,0,0,25
0,1,25.660752,68791199,1194245,1705,0,0,178.984375,2052.1875,124.86572265625,0,0,0,0,0,0,25
0,1,25.710768,68844204,1195167,1754,0,0,178.085922241211,2052.34350585938,124.884033203125,0,0,0,0,0,0,25
0,1,25.752773,68887395,1195929,1748,0,0,178.125,2052.5,124.905395507813,0,0,0,0,0,0,25
0,1,25.833777,68929851,1196652,1690,0,0,176.992172241211,2052.4609375,124.899291992188,0,0,0,0,0,0,25
0,1,25.839779,68975018,1197429,1688,0,0,176.9140625,2052.6953125,124.908447265625,0,0,0,0,0,0,25
0,1,25.884778,69016804,1198164,1798,0,0,177.578125,2049.1015625,124.737548828125,0,0,0,0,0,0,25
0,1,25.934788,69059477,1198899,1725,0,0,176.367156982422,2048.984375,124.7314453125,0,0,0,0,0,0,25
0,1,25.9718,69099876,1199609,1717,0,0,177.499984741211,2049.3359375,124.7314453125,0,-27.863224029541,-9.57129096984863,0,0,0,25
0,1,26.011803,69141657,1200329,1751,0,0,178.7109375,2049.17944335938,124.725341796875,0,0,0,0,0,0,25
0,1,26.049812,69184840,1201081,1725,0,0,178.59375,2048.94506835938,124.722290039063,0,0,0,0,0,0,25
0,1,26.103823,69226777,1201819,1781,0,0,179.9609375,2049.41381835938,124.734497070313,0,0,0,0,0,0,25
0,1,26.207951,69269891,1202561,1717,0,0,179.999984741211,2048.90600585938,124.7314453125,0,0,0,0,0,0,25
0,1,26.210933,69317266,1203391,1702,0,0,181.09375,2048.8671875,124.71923828125,0,0,0,0,0,0,25
0,1,26.226948,69358903,1204125,1813,0,0,181.132797241211,2049.375,124.728393554688,0,0,0,0,0,0,25
0,1,26.271945,69400844,1204850,1731,0,0,180.039047241211,2049.1015625,124.7314453125,0,0,0,0,0,0,25
0,1,26.316962,69442339,1205579,1727,0,0,181.132797241211,2049.21875,124.737548828125,0,0,0,0,0,0,25
0,1,26.377987,69485275,1206327,1776,0,0,181.171859741211,2049.21875,124.74365234375,0,0,0,0,0,0,25
0,1,26.412996,69528374,1207089,1735,0,0,179.8046875,2049.1015625,124.725341796875,0,0,0,0,0,0,25
0,1,26.433983,69569574,1207813,1785,0,0,179.9609375,2049.453125,124.7314453125,0.918843865394592,0,0,0,0,0,25
0,1,26.477999,69609979,1208505,1706,0,0,181.171859741211,2049.5703125,124.734497070313,4.28793859481812,0,0,0,0,0,25
0,1,26.573033,69651753,1209234,1701,0,0,179.84375,2049.609375,124.728393554688,0.00179461692459881,0,0,0,0,0,25
0,1,26.576034,69692738,1209935,1741,0,0,179.999984741211,2049.296875,124.7314453125,1.83768773078918,0,0,0,0,0,25
0,1,26.60602,69735658,1210674,1700,0,0,179.84375,2048.984375,124.7314453125,0.00717846769839525,0,0,0,0,0,25
0,1,26.649049,69777096,1211394,1767,0,0,179.999984741211,2049.3359375,124.74365234375,0.00837488006800413,0,0,0,0,0,25
0,1,26.69706,69819040,1212114,1741,0,0,179.999984741211,2049.4921875,124.74365234375,0.00717846769839525,0,0,0,0,0,25
0,1,26.739065,69859480,1212833,1734,0,0,178.632797241211,2049.21875,124.71923828125,8.57587718963623,0,0,0,0,0,25
0,1,26.774074,69900249,1213544,1775,0,0,179.921859741211,2049.375,124.740600585938,0.918843865394592,0,0,0,0,0,25
0,1,26.81507,69943295,1214299,1727,0,0,178.789047241211,2049.609375,124.740600585938,0.918843865394592,0,0,0,0,0,25
0,1,26.853081,69986306,1215052,1765,0,0,178.671859741211,2049.53125,124.737548828125,0.918843865394592,0,0,0,0,0,25
0,1,26.941096,70028554,1215781,1729,0,0,179.296844482422,2052.81225585938,124.91455078125,0.918843865394592,0,0,0,0,0,25
0,1,26.943096,70071811,1216547,1714,0,0,179.218734741211,2052.5,124.90234375,0.918843865394592,0,0,0,0,0,25
0,1,26.978104,70113592,1217280,1812,0,0,179.296844482422,2052.57788085938,124.905395507813,0.918843865394592,0,0,0,0,0,25
0,1,27.022114,70156995,1218032,1733,0,0,178.046859741211,2052.4609375,124.89013671875,0.918843865394592,0,0,0,0,0,25
0,1,27.072124,70199900,1218784,1723,0,0,179.375,2052.57788085938,124.905395507813,0.918843865394592,0,0,0,0,0,25
0,1,27.106133,70240399,1219482,1732,0,0,180.546875,2052.85131835938,124.908447265625,0.918843865394592,0,0,0,0,0,25
0,1,27.154142,70283277,1220231,1705,0,0,179.335922241211,2052.734375,124.917602539063,0.918843865394592,0,0,0,0,0,25
0,1,27.191153,70325930,1220974,1777,0,0,179.296844482422,2052.890625,124.911499023438,4.28793859481812,0,0,0,0,0,25
0,1,27.231163,70366635,1221668,1711,0,0,179.296844482422,2052.96875,124.911499023438,14.7015018463135,0,0,0,0,0,25
0,1,27.31518,70407841,1222384,1704,0,0,179.296844482422,2052.3046875,124.905395507813,0,0,0,0,0,1.87657797336578,25
0,1,27.31918,70450785,1223122,1748,0,0,179.296844482422,2052.65625,124.899291992188,1.83768773078918,0,0,0,0,0,25
0,1,27.35819,70490835,1223819,1698,0,0,179.335922241211,2052.65625,124.908447265625,4.28793859481812,0,0,0,0,0,25
0,1,27.403199,70533594,1224565,1785,0,0,178.125,2052.5,124.905395507813,4.28793859481812,0,0,0,0,0,25
0,1,27.447231,70575753,1225289,1732,0,0,178.085922241211,2052.34350585938,124.893188476563,8.57587718963623,0,0,0,0,0,25
0,1,27.482222,70615929,1225998,1726,0,0,178.046859741211,2052.6953125,124.911499023438,7.35075092315674,0,0,0,0,0,25
0,1,27.531245,70657014,1226714,1767,0,0,179.335922241211,2052.57788085938,124.90234375,17.1517543792725,0,0,0,0,0,25
0,1,27.570257,70698023,1227440,1745,0,0,178.125,2052.57788085938,124.905395507813,0.00179461692459881,0,0,0,0,0,25
0,1,27.673276,70740723,1228212,1835,0,0,178.085922241211,2052.421875,124.90234375,0.00418744003400207,0,0,0,0,0,25
0,1,27.676282,70783359,1228960,1733,0,0,178.1640625,2052.421875,124.90234375,4.28793859481812,0,0,0,0,0,25
0,1,27.69328,70824180,1229685,1723,0,0,177.929672241211,2052.3046875,124.90234375,0.00179461692459881,0,0,0,0,0,25
0,1,27.735277,70867553,1230457,1842,0,0,178.125,2052.6171875,124.905395507813,0,0,0,0,0,0,25
0,1,27.787307,70913101,1231261,1754,0,0,178.1640625,2052.734375,124.896240234375,0.00837488006800413,0,0,0,0,0,25
0,1,27.828317,70954353,1231994,1744,0,0,178.085922241211,2052.421875,124.89013671875,0.00179461692459881,0,0,0,0,0,25
0,1,27.862308,70997052,1232741,1785,0,0,178.125,2052.1875,124.896240234375,0,0,0,0,0,0,25
0,1,27.913323,71038447,1233473,1734,0,0,176.328125,2049.17944335938,124.737548828125,0.00179461692459881,0,0,0,0,0,25
0,1,27.946326,71081355,1234227,1780,0,0,176.406234741211,2049.64819335938,124.737548828125,0.00837488006800413,0,0,0,0,0,25
0,1,28.031343,71122799,1234944,1732,0,0,177.539047241211,2049.3359375,124.746704101563,0.918843865394592,0,0,0,0,0,25
0,1,28.034359,71166628,1235719,1715,0,0,177.499984741211,2049.17944335938,124.7314453125,1.07198464870453,0,0,0,0,0,25
0,1,28.081357,71209501,1236464,1798,0,0,177.539047241211,2049.375,124.740600585938,0,0.0167497601360083,0,0,0,0,25
0,1,28.120362,71255435,1237250,1693,0,0,177.4609375,2048.8671875,124.70703125,0,0,0,0,0,0,25
0,1,28.169388,71296675,1237960,1693,0,0,178.671859741211,2049.375,124.740600585938,0,0,0,0,0,0,25
0,1,28.208403,71339310,1238676,1692,0,0,178.7109375,2049.1015625,124.734497070313,0.918843865394592,0,0,0,0,0,25
0,1,28.256409,71381926,1239406,1659,0,0,177.539047241211,2049.453125,124.740600585938,0.918843865394592,0,0,0,0,0,25
0,1,28.295403,71423476,1240117,1766,0,0,176.328125,2049.17944335938,124.737548828125,0.918843865394592,0,0,0,0,0,25
0,1,28.395424,71466428,1240851,1756,0,0,177.421875,2049.5703125,124.740600585938,2.14396929740906,0,0,0,0,0,25
0,1,28.398426,71509242,1241612,1742,0,0,177.421875,2049.53125,124.74365234375,1.07198464870453,0,0,0,0,0,25
0,1,28.416434,71552095,1242372,1821,0,0,177.578125,2049.140625,124.734497070313,0.918843865394592,0,0,0,0,0,25
0,1,28.463464,71598666,1243202,1768,0,0,176.406234741211,2049.1015625,124.728393554688,0.918843865394592,0,0,0,0,0,25
0,1,28.514471,71642128,1243978,1760,0,0,178.828125,2049.296875,124.74365234375,1.07198464870453,0,0,0,0,0,25
0,1,28.558481,71684228,1244718,1781,0,0,178.789047241211,2049.3359375,124.746704101563,1.07198464870453,0,0,0,0,0,25
0,1,28.591489,71724989,1245443,1739,0,0,178.749984741211,2049.296875,124.734497070313,1.07198464870453,0,0,0,0,0,25
0,1,28.644498,71767599,1246199,1804,0,0,179.882797241211,2048.94506835938,124.7314453125,0.918843865394592,0,0,0,0,0,25
0,1,28.742523,71810459,1246938,1707,0,0,181.09375,2049.2578125,124.74365234375,0.918843865394592,0,0,0,0,0,25
0,1,28.746506,71851005,1247648,1704,0,0,182.265609741211,2049.4921875,124.737548828125,0.918843865394592,0,0,0,0,0,25
0,1,28.763507,71891616,1248340,1732,0,0,182.382797241211,2049.5703125,124.755859375,0.918843865394592,0,0,0,0,0,25
0,1,28.808519,71937174,1249117,1677,0,0,182.265609741211,2048.7890625,124.716186523438,0,0,0,0,0,0,25
0,1,28.850533,71978442,1249814,1712,0,0,182.265609741211,2049.17944335938,124.734497070313,1.07198464870453,0,0,0,0,0,25
0,1,28.905647,72021012,1250529,1709,0,0,182.929672241211,2052.5390625,124.905395507813,0,0.0185443758964539,0,0,0,0,25
0,1,28.928636,72063740,1251274,1688,0,0,182.929672241211,2052.34350585938,124.899291992188,0,0,0,0,0,0,25
0,1,28.973864,72106215,1252023,1826,0,0,182.812484741211,2052.5390625,124.908447265625,1.07198464870453,0,0,0,0,0,25
0,1,29.01187,72147213,1252750,1794,0,0,182.890625,2052.5390625,124.893188476563,0,0.000598205660935491,0,0,0,0,25
0,1,29.085888,72187473,1253480,1816,0,0,182.851547241211,2052.81225585938,124.90234375,1.07198464870453,0,0,0,0,0,25
0,1,29.100894,72230328,1254234,1741,0,0,181.7578125,2053.3984375,124.905395507813,1.07198464870453,0,0,0,0,0,25
0,1,29.141901,72273051,1254992,1728,0,0,182.890625,2052.6171875,124.896240234375,1.07198464870453,0,0,0,0,0,25
0,1,29.192911,72313999,1255720,1823,0,0,182.929672241211,2052.81225585938,124.911499023438,0,0,0.459421932697296,0,0,0,25
0,1,29.220948,72356046,1256454,1747,0,0,181.679672241211,2052.57788085938,124.90234375,0.918843865394592,0,0,0,0,0,25
0,1,29.267986,72398504,1257202,1728,0,0,181.7578125,2052.5,124.905395507813,0.918843865394592,0,0,0,0,0,25
0,1,29.304995,72440695,1257934,1757,0,0,182.851547241211,2052.265625,124.908447265625,1.07198464870453,0,0,0,0,0,25
0,1,29.349005,72483606,1258683,1739,0,0,181.718734741211,2052.81225585938,124.917602539063,1.07198464870453,0,0,0,0,0,25
0,1,29.431038,72524093,1259399,1792,0,0,181.7578125,2052.3828125,124.908447265625,1.07198464870453,0,0,0,0,0,25
0,1,29.435043,72566969,1260138,1710,0,0,181.7578125,2052.6171875,124.91455078125,1.07198464870453,0,0,0,0,0,25
0,1,29.482054,72609407,1260878,1693,0,0,181.640625,2052.421875,124.896240234375,1.07198464870453,0,0,0,0,0,25
0,1,29.522047,72652667,1261626,1787,0,0,181.640625,2052.6171875,124.908447265625,0.918843865394592,0,0,0,0,0,25
0,1,29.560052,72695235,1262357,1721,0,0,181.679672241211,2052.421875,124.90234375,1.07198464870453,0,0,0,0,0,25
0,1,29.607006,72739906,1263131,1715,0,0,181.7578125,2052.7734375,124.91455078125,0.918843865394592,0,0,0,0,0,25
0,1,29.654017,72782823,1263855,1686,0,0,181.679672241211,2052.57788085938,124.908447265625,1.07198464870453,0,0,0,0,0,25
0,1,29.691013,72825917,1264594,1665,0,0,181.718734741211,2052.81225585938,124.911499023438,1.07198464870453,0,0,0,0,0,25
0,1,29.764044,72866074,1265295,1801,0,0,181.718734741211,2052.6953125,124.905395507813,1.07198464870453,0,0,0,0,0,25
0,1,29.78103,72909436,1266039,1721,0,0,180.5078125,2052.5,124.908447265625,1.07198464870453,0,0,0,0,0,25
0,1,29.81705,72952206,1266784,1709,0,0,180.5078125,2052.5390625,124.908447265625,0.918843865394592,0,0,0,0,0,25
0,1,29.870047,72994358,1267517,1772,0,0,181.718734741211,2052.734375,124.920654296875,1.07198464870453,0,0,0,0,0,25
0,1,29.924062,73037096,1268274,1742,0,0,179.882797241211,2049.2578125,124.740600585938,0,0,0.153140649199486,0,0,0,25
0,1,29.957572,73083990,1269104,1767,0,0,179.9609375,2049.21875,124.749755859375,1.07198464870453,0,0,0,0,0,25
0,1,29.99358,73126572,1269844,1737,0,0,179.921859741211,2049.375,124.74365234375,0,0,0,-0.0390953756868839,-0.0390953756868839,-2.47232413291931,25
0,1,30.032574,73167572,1270570,1716,0,0,181.171859741211,2049.3359375,124.74365234375,0,0,0,-2.3469443321228,-2.3469443321228,0,25
0,1,30.113592,73209637,1271308,1809,0,0,179.9609375,2048.90600585938,124.734497070313,0,0,0,0.625373303890228,0.625373303890228,0,25
0,1,30.117593,73252575,1272047,1712,0,0,178.7109375,2048.8671875,124.728393554688,0,0,0,-2.34816598892212,-2.34816598892212,0,25
0,1,30.161604,73295374,1272790,1703,0,0,179.921859741211,2049.3359375,124.737548828125,0,0,0,-2.3469443321228,-2.3469443321228,0,25
0,1,30.211615,73338045,1273517,1729,0,0,181.0546875,2049.17944335938,124.728393554688,0,0,0,1.21165120601654,1.21165120601654,0,25
0,1,30.252629,73380003,1274240,1686,0,0,179.882797241211,2049.2578125,124.737548828125,0,0,0,-0.0390953756868839,-0.0390953756868839,-2.47232413291931,25
0,1,30.28763,73420738,1274941,1768,0,0,179.882797241211,2048.75,124.71923828125,0,0,0,0.60582560300827,0.60582560300827,0,25
0,1,30.334641,73461629,1275639,1745,0,0,181.132797241211,2049.375,124.74365234375,0,0,0,19.3864192962646,19.3864192962646,0,25
0,1,30.376666,73504757,1276399,1728,0,0,182.3046875,2049.0625,124.74365234375,0,0,0,0.625373303890228,0.625373303890228,0,25
0,1,30.464672,73545427,1277095,1714,0,0,182.34375,2049.5703125,124.755859375,0,0,0,0.304058164358139,0.304058164358139,0,25
0,1,30.467687,73588542,1277840,1702,0,0,181.132797241211,2049.0625,124.746704101563,0,0,0,2.38420701026917,2.38420701026917,0,25
0,1,30.496683,73631100,1278592,1800,0,0,181.132797241211,2048.94506835938,124.740600585938,0,0,0,1.21165120601654,1.21165120601654,0,25
0,1,30.539689,73672393,1279306,1723,0,0,182.3046875,2049.140625,124.749755859375,0,0,0,-2.34816598892212,-2.34816598892212,0,25
0,1,30.585719,73714805,1280051,1710,0,0,181.171859741211,2049.21875,124.746704101563,0,0,0,1.21165120601654,1.21165120601654,0,25
0,1,30.622728,73757879,1280807,1816,0,0,181.132797241211,2049.0234375,124.746704101563,0,0,0,-75.4125289916992,-75.4125289916992,0,25
0,1,30.666732,73798639,1281523,1741,0,0,182.34375,2049.17944335938,124.755859375,0,0,0,-75.4125289916992,-75.4125289916992,0,25
0,1,30.711751,73841740,1282279,1757,0,0,181.09375,2049.1015625,124.74365234375,0,0,0,-75.4125289916992,-75.4125289916992,0,25
0,1,30.793748,73885648,1283030,1702,0,0,181.132797241211,2049.375,124.74365234375,0,0,0,-4.85026979446411,-4.85026979446411,0,25
0,1,30.796763,73926536,1283741,1677,0,0,182.382797241211,2049.21875,124.749755859375,0,0,0,-2.34816598892212,-2.34816598892212,0,25
0,1,30.838755,73969199,1284478,1786,0,0,181.0546875,2048.90600585938,124.7314453125,0,0,0,2.2278254032135,2.2278254032135,0,25
0,1,30.884781,74010055,1285182,1764,0,0,180.546875,2052.65625,124.908447265625,0,0,0,1.21165120601654,1.21165120601654,0,25
0,1,30.917777,74052973,1285943,1754,0,0,181.718734741211,2052.34350585938,124.905395507813,0,0,0,0,0,0,25
0,1,30.966787,74096077,1286687,1729,0,0,181.640625,2052.1484375,124.911499023438,0,0,0,0,0,0,25
0,1,31.002814,74136684,1287395,1694,0,0,180.5078125,2052.57788085938,124.917602539063,0.0376869551837444,0,-0.000598205660935491,0,0,-0.00446804286912084,25
0,1,31.047811,74177928,1288112,1791,0,0,180.546875,2052.421875,124.90234375,0,0,0,0,0,0,25
0,1,31.133824,74219782,1288824,1690,0,0,180.546875,2051.9921875,124.896240234375,19.48655128479,0,-9.64845943450928,0,0,0,25
0,1,31.136824,74261452,1289535,1686,0,0,180.468734741211,2052.3046875,124.905395507813,78.4056167602539,38.5914421081543,39.0508689880371,0,0,0,25
0,1,31.168846,74304294,1290263,1718,0,0,180.5078125,2052.734375,124.91455078125,-0.612562596797943,0.303888499736786,-0.612562596797943,0,0,0,25
0,1,31.216842,74345564,1290984,1699,0,0,179.335922241211,2052.85131835938,124.91455078125,-0.612562596797943,0.303888499736786,-0.612562596797943,0,0,0,25
0,1,31.260866,74387620,1291739,1842,0,0,179.296844482422,2052.6953125,124.917602539063,77.9462051391602,0,-38.5938377380371,0,0,0,25
0,1,31.297859,74428218,1292454,1760,0,0,179.335922241211,2052.5390625,124.91455078125,78.4056167602539,0,-38.5938377380371,0,0,0,25
0,1,31.33587,74468757,1293176,1754,0,0,179.296844482422,2052.34350585938,124.917602539063,0,0,0,4.96740341186523,4.96740341186523,0.0293215308338404,25
0,1,31.3899,74511742,1293934,1791,0,0,179.375,2052.3046875,124.920654296875,-38.7374076843262,0,0,0,0,9.69320964813232,25
0,1,31.483923,74554687,1294697,1756,0,0,179.296844482422,2052.421875,124.908447265625,78.4056167602539,0,-38.5938377380371,0,0,0,25
0,1,31.486924,74604288,1295573,1742,0,0,181.679672241211,2051.87475585938,124.899291992188,77.9462051391602,0,-38.5938377380371,0,0,0,25
0,1,31.541917,74671464,1296756,1751,0,0,185.234375,2052.4609375,124.905395507813,0,0,0,0,0,0,25
0,1,31.593927,74713084,1297471,1711,0,0,185.2734375,2052.57788085938,124.920654296875,0,0,38.5914421081543,0,0,0,25
0,1,31.653944,74755177,1298201,1688,0,0,184.062484741211,2052.1875,124.90234375,19.48655128479,0,-9.64845943450928,0,0,0,25
0,1,31.710953,74797504,1298943,1798,0,0,184.0234375,2052.34350585938,124.896240234375,77.9462051391602,0,-38.5938377380371,0,0,0,25
0,1,31.729979,74840226,1299674,1699,0,0,183.984375,2051.87475585938,124.884033203125,0,0,0,-0.00446804286912084,-0.00446804286912084,-0.282551348209381,25
0,1,31.758968,74888302,1300499,1662,0,0,184.101547241211,2052.1484375,124.90234375,0,0,0,-1.17408299446106,-1.17408299446106,0,25
0,1,31.843004,74931453,1301228,1747,0,0,182.812484741211,2052.34350585938,124.911499023438,0,0,0,0.0681202039122581,0.0681202039122581,0,25
0,1,31.846005,74974294,1301952,1732,0,0,181.718734741211,2052.5390625,124.91455078125,0,0,0,-1.17408299446106,-1.17408299446106,0,25
0,1,31.887009,75016561,1302693,1750,0,0,181.171859741211,2049.2578125,124.765014648438,0,0,0,4.72992992401123,4.72992992401123,0,25
0,1,31.922001,75057402,1303397,1729,0,0,181.09375,2049.140625,124.740600585938,0,0,0,0.0193949714303017,0.0193949714303017,0,152.24609375
0,1,31.966032,75100267,1304155,1712,0,0,181.09375,2049.0234375,124.749755859375,0,0,0,1.21165120601654,1.21165120601654,0,25
0,1,32.014044,75141414,1304880,1820,0,0,181.0546875,2049.53125,124.752807617188,19.6014041900635,0,-9.64845943450928,0,0,0,25
0,1,32.04805,75183994,1305625,1772,0,0,179.921859741211,2049.1015625,124.749755859375,0.0759721249341965,-0.153140649199486,-0.0382851622998714,0,0,2.46300864219666,25
0,1,32.095255,75229507,1306437,1745,0,0,181.0546875,2049.17944335938,124.746704101563,78.4056167602539,38.5914421081543,-38.7374076843262,0,0,0,25
0,1,32.178295,75272897,1307192,1777,0,0,179.921859741211,2049.17944335938,124.749755859375,0,0,0,-4.85026979446411,-4.85026979446411,0,25
0,1,32.181295,75313941,1307901,1712,0,0,179.9609375,2049.140625,124.749755859375,0,0,0,-2.34816598892212,-2.34816598892212,0,25
0,1,32.223305,75355346,1308616,1745,0,0,181.132797241211,2049.21875,124.749755859375,0,0,0,0,0,0,25
0,1,32.27031,75397984,1309334,1683,0,0,181.171859741211,2049.17944335938,124.755859375,78.4056167602539,38.5914421081543,-38.7374076843262,0,0,0,25
0,1,32.308303,75440579,1310065,1662,0,0,181.171859741211,2049.17944335938,124.758911132813,78.4056167602539,0,-38.5938377380371,0,0,0,25
0,1,32.346315,75481721,1310757,1715,0,0,181.09375,2049.0625,124.746704101563,-9.64845943450928,-9.64845943450928,0,0,0,0,25
0,1,32.39533,75522453,1311445,1690,0,0,181.171859741211,2049.17944335938,124.761962890625,19.48655128479,0,-9.64845943450928,0,0,0,25
0,1,32.439358,75569236,1312268,1762,0,0,179.999984741211,2049.453125,124.761962890625,0.303888499736786,-39.0532569885254,-39.0532569885254,0,0,2.46300864219666,25
0,1,32.522742,75612171,1313021,1770,0,0,179.84375,2049.296875,124.761962890625,0,0,0,-2.34816598892212,-2.34816598892212,0,25
0,1,32.525743,75654803,1313791,1759,0,0,181.2109375,2049.2578125,124.771118164063,0,0,0,1.21165120601654,1.21165120601654,0,25
0,1,32.564752,75695482,1314524,1851,0,0,179.882797241211,2049.3359375,124.746704101563,0,0,0,-2.3469443321228,-2.3469443321228,0,25
0,1,32.613779,75738488,1315289,1782,0,0,179.84375,2049.21875,124.755859375,0.303888499736786,-36.7561492919922,0.459421932697296,0,0,2.46300864219666,25
0,1,32.666938,75779929,1316038,1766,0,0,179.882797241211,2049.2578125,124.755859375,0,0,0,0.625373303890228,0.625373303890228,0,25
0,1,32.707921,75823487,1316807,1808,0,0,179.921859741211,2048.984375,124.749755859375,0,0,0,4.69617938995361,4.69617938995361,0,25
0,1,32.738927,75866238,1317557,1746,0,0,179.921859741211,2048.90600585938,124.752807617188,0,0,0,0.0193949714303017,0.0193949714303017,0,152.99609375
0,1,32.783936,75910704,1318335,1732,0,0,181.09375,2048.90600585938,124.749755859375,0.303888499736786,-37.2155685424805,0.459421932697296,0,0,2.46300864219666,25
0,1,32.870957,75953584,1319072,1721,0,0,181.132797241211,2049.296875,124.758911132813,19.6014041900635,0,-9.64845943450928,0,0,0,25
0,1,32.873956,75996019,1319810,1694,0,0,179.921859741211,2049.1015625,124.752807617188,0,0,0,0.569658041000366,0.569658041000366,0,24
0,1,32.902963,76038436,1320541,1765,0,0,180.5078125,2052.421875,124.91455078125,78.4056167602539,0,-38.5938377380371,0,0,0,25
0,1,32.946974,76080161,1321246,1700,0,0,179.375,2052.57788085938,124.9267578125,-36.7561492919922,0.459421932697296,0,0,0,0.0193949714303017,25
0,1,32.996986,76122810,1321978,1682,0,0,179.218734741211,2052.5,124.9267578125,78.4056167602539,38.5914421081543,-38.7374076843262,0,0,0,25
0,1,33.028997,76163630,1322673,1714,0,0,180.546875,2052.1484375,124.9267578125,78.4056167602539,38.5914421081543,39.0508689880371,0,0,0,25
0,1,33.074005,76206367,1323415,1710,0,0,179.375,2052.34350585938,124.923706054688,78.4056167602539,38.5914421081543,-0.153140649199486,0,0,0,25
0,1,33.117012,76249857,1324192,1810,0,0,179.335922241211,2052.4609375,124.923706054688,0,0,0,-4.85026979446411,-4.85026979446411,0,25
0,1,33.162022,76291121,1324908,1717,0,0,179.218734741211,2052.1875,124.920654296875,0,0,0,-4.7132830619812,-4.7132830619812,0,25
0,1,33.248042,76333078,1325637,1693,0,0,179.296844482422,2052.4609375,124.923706054688,0,0,0,-2.34816598892212,-2.34816598892212,0,25
0,1,33.251042,76374136,1326338,1729,0,0,179.296844482422,2052.1484375,124.9267578125,0,0,0,-2.34816598892212,-2.34816598892212,0,25
0,1,33.281051,76416708,1327069,1727,0,0,179.296844482422,2052.1875,124.920654296875,0,0,0,-2.34816598892212,-2.34816598892212,0,25
0,1,33.324059,76459515,1327825,1779,0,0,179.2578125,2052.0703125,124.91455078125,78.4056167602539,0,-38.5938377380371,0,0,0,25
0,1,33.367069,76501205,1328540,1702,0,0,179.335922241211,2052.265625,124.932861328125,78.4056167602539,38.5914421081543,-38.7374076843262,0,0,0,25
0,1,33.407078,76541775,1329244,1684,0,0,179.296844482422,2052.3828125,124.917602539063,78.4056167602539,38.5914421081543,39.0508689880371,0,0,0,25
0,1,33.454031,76589852,1330080,1802,0,0,179.296844482422,2052.5,124.93896484375,78.4056167602539,38.5914421081543,-38.7374076843262,0,0,0,25
0,1,33.498035,76632764,1330817,1717,0,0,179.296844482422,2052.421875,124.935913085938,0,0,0,-2.34816598892212,-2.34816598892212,0,25
0,1,33.584061,76675185,1331549,1701,0,0,180.546875,2052.5,124.935913085938,78.4056167602539,0,-38.5938377380371,0,0,0,25
0,1,33.58706,76716025,1332244,1708,0,0,180.546875,2052.4609375,124.932861328125,78.4056167602539,0,-38.5938377380371,0,0,0,25
0,1,33.628067,76758347,1332981,1694,0,0,180.546875,2052.4609375,124.929809570313,78.4056167602539,38.5914421081543,39.0508689880371,0,0,0,25
0,1,33.673062,76799273,1333715,1842,0,0,179.335922241211,2052.734375,124.935913085938,78.4056167602539,38.5914421081543,-38.7374076843262,0,0,0,25
0,1,33.705067,76840018,1334433,1767,0,0,178.046859741211,2052.3828125,124.932861328125,0,0,0,1.21165120601654,1.21165120601654,0,25
0,1,33.756078,76882626,1335192,1750,0,0,179.335922241211,2052.6171875,124.935913085938,0,0,0,-4.85026979446411,-4.85026979446411,0,25
0,1,33.79909,76930492,1336028,1803,0,0,179.296844482422,2052.57788085938,124.929809570313,0,0,0,-75.4125289916992,-75.4125289916992,0,25
0,1,33.840103,76973998,1336784,1735,0,0,178.1640625,2052.57788085938,124.93896484375,0,0,0,-4.85026979446411,-4.85026979446411,0,25
0,1,33.922137,77015259,1337506,1741,0,0,178.7109375,2049.375,124.7802734375,0,0,0,4.9649600982666,4.9649600982666,0.0293215308338404,25
0,1,33.925138,77057732,1338231,1703,0,0,177.499984741211,2049.0625,124.761962890625,0,0,0,-75.4125289916992,-75.4125289916992,0,26
0,1,33.967147,77100547,1338975,1681,0,0,178.749984741211,2048.984375,124.761962890625,0,0,0,-4.7132830619812,-4.7132830619812,0,25
0,1,34.01514,77143508,1339715,1774,0,0,177.539047241211,2049.2578125,124.774169921875,0,0,0,-2.34816598892212,-2.34816598892212,0,25
0,1,34.073166,77184996,1340421,1726,0,0,177.578125,2049.17944335938,124.761962890625,0,0,0,-75.4125289916992,-75.4125289916992,0,25
0,1,34.119182,77228004,1341170,1712,0,0,177.421875,2048.43725585938,124.740600585938,0,0,0,-4.7132830619812,-4.7132830619812,0,25
0,1,34.139165,77272059,1341937,1783,0,0,178.7109375,2048.8671875,124.758911132813,0,0,0,-4.69373607635498,-4.69373607635498,0,25
0,1,34.185175,77313626,1342673,1751,0,0,176.406234741211,2049.5703125,124.777221679688,0,0,0,-4.85026979446411,-4.85026979446411,0,25
0,1,34.271451,77356810,1343443,1797,0,0,177.499984741211,2049.296875,124.771118164063,0,0,0,-4.69388866424561,-4.69388866424561,0,25
0,1,34.274448,77398270,1344166,1738,0,0,178.789047241211,2048.90600585938,124.76806640625,0,0,0,-4.7132830619812,-4.7132830619812,0,25
0,1,34.307455,77441201,1344929,1722,0,0,178.828125,2049.0625,124.774169921875,0,0,0,-2.34816598892212,-2.34816598892212,0,25
0,1,34.354467,77484418,1345691,1820,0,0,177.499984741211,2049.21875,124.777221679688,0,0,0,-77.9170837402344,-77.9170837402344,0,25
0,1,34.398496,77527640,1346443,1741,0,0,177.499984741211,2049.3359375,124.758911132813,0,0,0,-4.7132830619812,-4.7132830619812,0,25
0,1,34.434484,77568728,1347168,1736,0,0,177.578125,2048.984375,124.771118164063,0,0,0,-75.4125289916992,-75.4125289916992,0,25
0,1,34.486511,77613539,1347933,1730,0,0,178.4375,2049.17944335938,124.774169921875,0.459421932697296,0,0,0,0,-2.38374876976013,25
0,1,34.528521,77656741,1348674,1690,0,0,178.671859741211,2048.94506835938,124.765014648438,0,0,0,-75.4125289916992,-75.4125289916992,0,25
0,1,34.614843,77699546,1349409,1740,0,0,176.171875,2049.41381835938,124.765014648438,0,0,0,-4.86981773376465,-4.86981773376465,0,25
0,1,34.617545,77740560,1350099,1691,0,0,177.499984741211,2049.0234375,124.758911132813,0,0,0,-75.4125289916992,-75.4125289916992,0,25
0,1,34.648472,77782891,1350826,1672,0,0,177.499984741211,2049.1015625,124.76806640625,0,0,0,1.21165120601654,1.21165120601654,0,25
0,1,34.691483,77823988,1351541,1779,0,0,177.539047241211,2049.375,124.777221679688,0,0,0,-0.507628977298737,-0.507628977298737,0,28
0,1,34.736492,77865105,1352265,1740,0,0,176.328125,2049.21875,124.7802734375,0,0,0,-75.4125289916992,-75.4125289916992,0,25
0,1,34.7735,77908278,1353033,1797,0,0,176.289047241211,2049.21875,124.774169921875,0,0,0,-75.4125289916992,-75.4125289916992,0,25
0,1,34.824512,77955925,1353866,1759,0,0,176.406234741211,2048.90600585938,124.774169921875,0,0,0,-2.34816598892212,-2.34816598892212,0,25
0,1,34.868523,77996657,1354593,1733,0,0,176.562484741211,2049.1015625,124.765014648438,0,0,0,4.88631105422974,4.88631105422974,0,25
0,1,34.955545,78038811,1355338,1813,0,0,176.953109741211,2052.3046875,124.945068359375,0,0,0,-71.0338516235352,-71.0338516235352,0,28
0,1,34.963547,78080680,1356061,1722,0,0,176.992172241211,2052.65625,124.942016601563,0,0,0,-71.0289688110352,-71.0289688110352,0,28
0,1,34.995553,78125201,1356838,1702,0,0,178.085922241211,2052.4609375,124.935913085938,0,0,0,-2.34816598892212,-2.34816598892212,0,25
0,1,35.038562,78165573,1357521,1707,0,0,178.085922241211,2052.65625,124.942016601563,0,0,0,-4.85026979446411,-4.85026979446411,0,25
0,1,35.080571,78206529,1358217,1656,0,0,176.953109741211,2052.6953125,124.945068359375,0,0,0,-71.0289688110352,-71.0289688110352,0,26
0,1,35.12158,78249575,1358951,1748,0,0,175.703109741211,2052.421875,124.942016601563,0,0,0,-76.0380630493164,-76.0380630493164,0,25
0,1,35.157588,78291922,1359667,1734,0,0,176.9140625,2052.34350585938,124.951171875,0,0,0,-4.86966514587402,-4.86966514587402,0,25
0,1,35.209601,78334896,1360422,1714,0,0,176.9140625,2053.9453125,124.935913085938,0,0,0,-4.69388866424561,-4.69388866424561,0,25
0,1,35.243609,78377842,1361176,1807,0,0,176.953109741211,2052.6953125,124.954223632813,0,0,0,0.312610298395157,0.312610298395157,0,25
0,1,35.341631,78422004,1361956,1750,0,0,176.875,2052.4609375,124.951171875,4.59182643890381,-38.7374076843262,0,0,0,2.46300864219666,25
0,1,35.345633,78465386,1362721,1753,0,0,176.953109741211,2052.6171875,124.951171875,0,0,0,4.88676881790161,4.88676881790161,0,25
0,1,35.377637,78508482,1363472,1752,0,0,176.992172241211,2052.3828125,124.954223632813,0.459421932697296,0,0,0,0,-2.37519669532776,25
0,1,35.42365,78551310,1364232,1730,0,0,175.6640625,2052.1484375,124.935913085938,0,0,0,2.44285011291504,2.44285011291504,0,25
0,1,35.464657,78592359,1364951,1794,0,0,176.835922241211,2052.4609375,124.957275390625,78.4056167602539,38.5914421081543,-38.7374076843262,0,0,0,25
