command_auxdaq_sdwrite,flag_auxdaq_sdwrite,time_internal_seconds,time_auxdaq_us,position_engine_ticks,speed_engine_rpm,position_secondary_ticks,speed_secondary_rpm,pressure_frontbrake_psi,pressure_rearbrake_psi,lds_pedal_mm,imu_acceleration_x,imu_acceleration_y,imu_acceleration_z,imu_gyro_x,imu_gyro_y,imu_gyro_z,imu_temperature
0,1,0.415639,2460458564,1658236,1785,29034,0,22.6171913146973,2054.1796875,124.911499023438,0.248853549361229,-4.28793859481812,13.2705945968628,0.0146607654169202,0.0146607654169202,-0.228463590145111,75.53515625
0,1,0.442645,2460499889,1658960,1776,29034,0,23.8281192779541,2054.3359375,124.91455078125,-1.00498557090759,-4.26879549026489,10.1024971008301,0.0146607654169202,0.0146607654169202,-0.0867428630590439,75.515625
0,1,0.485655,2460541373,1659697,1738,29034,0,22.6171913146973,2054.21875,124.920654296875,4.7234320640564,-0.378066003322601,9.88235759735107,0.100181899964809,0.100181899964809,-0.283441454172134,75.53125
0,1,0.524663,2460583114,1660428,1773,29034,0,22.5390491485596,2054.1015625,124.91455078125,1.61754810810089,2.36889433860779,10.3034954071045,0.0146607654169202,0.0146607654169202,-0.150272846221924,75.6015625
0,1,0.575677,2460623525,1661117,1680,29034,0,23.7890472412109,2053.90625,124.920654296875,-4.51764869689941,1.65104758739471,6.70468902587891,0.0232128798961639,0.0232128798961639,0.188146486878395,75.6640625
0,1,0.606687,2460665303,1661834,1682,29034,0,23.7890472412109,2054.29663085938,124.932861328125,1.44526493549347,0.813559710979462,10.5427761077881,-0.0549778714776039,-0.0549778714776039,0.400727599859238,75.69140625
0,1,0.651695,2460706891,1662523,1675,29034,0,23.7890472412109,2054.1015625,124.91455078125,3.19681096076965,-1.96211457252502,8.19781017303467,-0.0549778714776039,-0.0549778714776039,0.0390953756868839,75.73046875
0,1,0.693702,2460751744,1663276,1632,29034,0,22.6953029632568,2054.0234375,124.929809570313,-3.7471604347229,-1.33519506454468,10.8777713775635,0.0378736443817616,0.0378736443817616,-0.157603219151497,75.75
0,1,0.734715,2460793501,1663969,1709,29034,0,22.6562328338623,2054.2578125,124.9267578125,3.06759881973267,1.45483613014221,7.53260564804077,0.0378736443817616,0.0378736443817616,-0.056199599057436,75.78125
0,1,0.782723,2460839700,1664716,1590,29034,0,22.6171913146973,2054.0234375,124.91455078125,1.83768773078918,2.42153668403625,7.57089042663574,0.250454753637314,0.250454753637314,0.219911485910416,75.8046875
0,1,0.820733,2460880107,1665383,1622,29034,0,23.8281192779541,2054.21875,124.917602539063,-2.16311192512512,-0.593420028686523,11.9784698486328,-0.0390953756868839,-0.0390953756868839,0.0305432621389627,75.8046875
0,1,0.890764,2460927811,1666137,1620,29034,0,22.6171913146973,2053.9453125,124.908447265625,0.904487013816833,-4.74736022949219,14.3138656616211,0.296880483627319,0.296880483627319,-0.0244346093386412,75.84375
0,1,0.910752,2460969542,1666850,1645,29034,0,22.6171913146973,2053.9453125,124.91455078125,-5.6422758102417,-1.21076834201813,8.75773143768311,0.107512280344963,0.107512280344963,-0.0708603635430336,75.87109375
0,1,0.96478,2461015690,1667646,1864,29034,0,22.226541519165,2050.9375,124.737548828125,1.43090796470642,2.737389087677,11.19362449646,0.00733038270846009,0.00733038270846009,-0.01588249579072,75.94140625
0,1,1.000771,2461057649,1668382,1729,29034,0,23.3984298706055,2050.9765625,124.74365234375,-0.277567446231842,-3.20638227462769,12.0981121063232,0.0537561401724815,0.0537561401724815,0.581543684005737,75.984375
0,1,1.042787,2461102465,1669182,1739,29034,0,23.4375,2050.62475585938,124.734497070313,2.97667145729065,1.45483613014221,0.540777981281281,-0.04764748737216,-0.04764748737216,0.502131223678589,76.015625
0,1,1.090127,2461144043,1669903,1786,29034,0,23.5156116485596,2050.62475585938,124.74365234375,2.60817646980286,-0.808774054050446,10.23171043396,-0.01588249579072,-0.01588249579072,-0.0635299831628799,75.984375
0,1,1.160207,2461191263,1670708,1668,29034,0,23.4375,2050.78125,124.7314453125,-5.58006238937378,1.76590323448181,10.9112710952759,-0.117286123335361,-0.117286123335361,0.0464257597923279,76.83203125
0,1,1.195217,2461231333,1671391,1673,29034,0,22.226541519165,2050.62475585938,124.722290039063,1.43569374084473,-1.53140652179718,12.3326082229614,0.0464257597923279,0.0464257597923279,0.0146607654169202,76.078125
0,1,1.218221,2461277817,1672152,1662,29034,0,23.4765701293945,2050.78125,124.74365234375,1.79461693763733,-2.01475667953491,11.4041929244995,0.00733038270846009,0.00733038270846009,0.124616511166096,76.0703125
0,1,1.262633,2461319229,1672859,1666,29034,0,23.5156116485596,2050.78125,124.740600585938,3.44566488265991,-0.0765703245997429,10.1024971008301,0.107512280344963,0.107512280344963,-0.0794124826788902,76.08984375
0,1,1.332697,2461365836,1673647,1732,29034,0,23.3984298706055,2050.5078125,124.725341796875,0.373280346393585,2.58424830436707,10.0354976654053,-0.0232128798961639,-0.0232128798961639,-0.134390354156494,76.15625
0,1,1.347685,2461406721,1674322,1630,29034,0,23.3203163146973,2050.7421875,124.740600585938,-1.83768773078918,4.34057998657227,6.42712211608887,-0.0232128798961639,-0.0232128798961639,-0.0635299831628799,76.15234375
0,1,1.393696,2461452846,1675111,1681,29034,0,23.4765701293945,2050.5859375,124.740600585938,0.301495641469955,1.65104758739471,9.93021392822266,0.0146607654169202,0.0146607654169202,-0.0708603635430336,76.2890625
0,1,1.449709,2461494157,1675803,1736,29034,0,22.226541519165,2050.5859375,124.7314453125,1.60797679424286,-0.177068874239922,3.20159697532654,0.0378736443817616,0.0378736443817616,-0.04764748737216,76.18359375
0,1,1.482715,2461541013,1676610,1666,29034,0,22.2656135559082,2050.62475585938,124.749755859375,-0.5599205493927,-1.02891373634338,12.7441740036011,0.0305432621389627,0.0305432621389627,0.0623082555830479,76.23046875
0,1,1.533729,2461582541,1677339,1788,29034,0,22.3046836853027,2050.546875,124.746704101563,0.789631545543671,6.12084054946899,10.9112710952759,0.0537561401724815,0.0537561401724815,-0.0867428630590439,76.25
0,1,1.579738,2461627741,1678117,1737,29034,0,22.2656135559082,2050.62475585938,124.746704101563,-2.27318167686462,-3.25423884391785,4.71386051177979,0.0696386322379112,0.0696386322379112,-0.150272846221924,76.3515625
0,1,1.609746,2461668519,1678841,1729,29034,0,23.3593578338623,2050.89819335938,124.749755859375,-0.315852612257004,-3.41216492652893,6.685546875,0.0537561401724815,0.0537561401724815,-0.102625355124474,76.28515625
0,1,1.656775,2461715278,1679669,1848,29034,0,22.3046836853027,2050.85913085938,124.749755859375,0.583848714828491,3.87637257575989,9.38943576812744,0.0610865242779255,0.0610865242779255,-0.0867428630590439,76.4375
0,1,1.699782,2461756573,1680398,1751,29034,0,23.4765701293945,2051.09375,124.758911132813,1.16291177272797,0.239282250404358,13.3232374191284,-0.03176499158144,-0.03176499158144,0.0940732434391975,76.359375
0,1,1.746801,2461801953,1681207,1732,29034,0,23.3984298706055,2050.5859375,124.722290039063,1.26341044902802,-0.535992324352264,4.53679132461548,-0.00855211354792118,-0.00855211354792118,0.0390953756868839,76.484375
0,1,1.785806,2461844619,1681950,1796,29034,0,22.1875019073486,2050.8203125,124.74365234375,-1.90468680858612,2.52203488349915,9.38465023040771,0,0,-0.221133202314377,76.3984375
0,1,1.830791,2461888753,1682707,1683,29034,0,23.4375,2050.5859375,124.734497070313,-0.406779855489731,1.67497587203979,9.80578708648682,-0.03176499158144,-0.03176499158144,-0.056199599057436,76.4609375
0,1,1.8718,2461931088,1683442,1706,29034,0,22.3046836853027,2050.85913085938,124.746704101563,-1.41176533699036,-1.96211457252502,13.1653108596802,-0.04764748737216,-0.04764748737216,0.117286123335361,76.5234375
0,1,1.918812,2461977876,1684233,1742,29034,0,22.226541519165,2050.234375,124.71923828125,6.80040168762207,-2.24925327301025,3.32123780250549,-0.235793977975845,-0.235793977975845,-0.0867428630590439,76.53125
0,1,1.974769,2462020214,1684945,1641,29034,0,22.6171913146973,2054.5703125,124.923706054688,0.378066003322601,-4.00079965591431,11.3036947250366,0.00733038270846009,0.00733038270846009,0.140499010682106,76.546875
0,1,2.004776,2462063685,1685673,1684,29034,0,22.5781211853027,2053.6328125,124.896240234375,-0.885344386100769,1.9860428571701,8.10688304901123,-0.00855211354792118,-0.00855211354792118,0.0940732434391975,77.00390625
0,1,2.088814,2462105430,1686344,1589,29034,0,23.7500076293945,2054.4140625,124.929809570313,-1.90468680858612,2.25403904914856,8.73380279541016,0.0232128798961639,0.0232128798961639,0.101403623819351,76.52734375
0,1,2.135821,2462152336,1687107,1572,29034,0,23.7500076293945,2053.4765625,124.868774414063,4.01994228363037,0.70348984003067,10.0785694122314,-0.01588249579072,-0.01588249579072,0.101403623819351,76.5625
0,1,2.144823,2462194543,1687771,1639,29034,0,23.6718654632568,2053.59375,124.896240234375,-1.00019991397858,-9.17886829376221,5.61356210708618,-0.0708603635430336,-0.0708603635430336,0.149051114916801,76.5625
0,1,2.179083,2462237724,1688541,1708,29034,0,22.6171913146973,2053.6328125,124.911499023438,-2.36889433860779,-5.1110692024231,13.3184509277344,0,0,0.24312436580658,76.61328125
0,1,2.228852,2462279374,1689276,1784,29034,0,22.6171913146973,2054.140625,124.911499023438,-1.23469650745392,4.91964340209961,10.3513517379761,0.0378736443817616,0.0378736443817616,0.133168622851372,76.59375
0,1,2.270852,2462327078,1690086,1698,29034,0,23.8281192779541,2053.9453125,124.91455078125,-4.53200626373291,-0.0622133873403072,12.8829584121704,0.0305432621389627,0.0305432621389627,0.259006857872009,76.63671875
0,1,2.309861,2462368586,1690796,1662,29034,0,23.7500076293945,2053.75,124.917602539063,-1.30169558525085,-2.60339117050171,5.10149812698364,0.0842994004487991,0.0842994004487991,0.290771842002869,76.578125
0,1,2.399877,2462414042,1691559,1752,29034,0,22.7343730926514,2054.2578125,124.923706054688,1.77547442913055,1.44047927856445,10.9543418884277,0.0146607654169202,0.0146607654169202,-0.102625355124474,76.64453125
0,1,2.455893,2462455725,1692257,1641,29034,0,23.7109355926514,2053.7109375,124.905395507813,2.24446773529053,2.96231436729431,10.1551399230957,-0.131946891546249,-0.131946891546249,0.266337245702744,76.6171875
0,1,2.471895,2462502228,1693041,1645,29034,0,22.5781211853027,2053.671875,124.893188476563,1.44047927856445,-0.521635353565216,10.810772895813,0.00733038270846009,0.00733038270846009,0.00733038270846009,76.6328125
0,1,2.536912,2462544007,1693716,1631,29034,0,22.6562328338623,2054.1015625,124.911499023438,3.90987229347229,-2.71824622154236,11.332407951355,-0.0390953756868839,-0.0390953756868839,-0.04764748737216,76.77734375
0,1,2.570923,2462588897,1694479,1647,29034,0,22.6562328338623,2054.06225585938,124.91455078125,-5.07278394699097,-2.20618271827698,13.591233253479,0.0769690200686455,0.0769690200686455,0.124616511166096,76.74609375
0,1,2.601928,2462629132,1695169,1860,29034,0,22.6171913146973,2054.0234375,124.91455078125,-1.8185453414917,1.45962178707123,16.8311157226563,0.0610865242779255,0.0610865242779255,0.0305432621389627,76.80078125
0,1,2.61793,2462675794,1695988,1725,29034,0,23.8281192779541,2053.82788085938,124.896240234375,-0.870987474918365,2.00997114181519,10.7629156112671,0.0378736443817616,0.0378736443817616,-0.244346097111702,76.765625
0,1,2.660943,2462717177,1696730,1752,29034,0,23.7890472412109,2053.984375,124.920654296875,-4.90528678894043,-2.81874513626099,10.9591283798218,0.0610865242779255,0.0610865242779255,0.00733038270846009,76.9765625
0,1,2.706951,2462763888,1697547,1806,29034,0,23.7109355926514,2053.9453125,124.905395507813,-0.574277460575104,1.564906001091,10.1551399230957,0.0232128798961639,0.0232128798961639,-0.00855211354792118,76.89453125
0,1,2.746959,2462805956,1698274,1693,29034,0,23.8281192779541,2054.21875,124.929809570313,2.54117751121521,2.47896409034729,8.17388248443604,-0.0390953756868839,-0.0390953756868839,0.0390953756868839,76.90625
0,1,2.799973,2462852268,1699074,1686,29034,0,23.8281192779541,2053.82788085938,124.923706054688,-1.11505544185638,-3.78544521331787,11.9018993377686,-0.0781907513737679,-0.0781907513737679,0.0940732434391975,76.89453125
0,1,2.845981,2462893706,1699765,1692,29034,0,24.9218635559082,2054.06225585938,124.923706054688,-2.24925327301025,0.334995180368423,9.79143047332764,0.0232128798961639,0.0232128798961639,0.408057987689972,76.93359375
0,1,2.87899,2462937690,1700494,1621,29034,0,23.7109355926514,2053.78881835938,124.911499023438,1.11026978492737,-1.44526493549347,12.5862483978271,0.0378736443817616,0.0378736443817616,0.0390953756868839,76.94140625
0,1,2.920015,2462978557,1701169,1739,29034,0,23.7109355926514,2054.1796875,124.920654296875,-1.96211457252502,2.11525511741638,11.5286197662354,0.379958152770996,0.379958152770996,0.164933606982231,77.44140625
0,1,2.963009,2463019050,1701842,1629,29034,0,24.6874980926514,2051.13256835938,124.758911132813,0.90927267074585,1.38783717155457,9.57607650756836,-0.140499010682106,-0.140499010682106,0.0781907513737679,77.01953125
0,1,3.00302,2463061619,1702594,1812,29034,0,25.7812442779541,2050.703125,124.310302734375,-3.40259408950806,-1.25383913516998,9.08794021606445,-0.03176499158144,-0.03176499158144,-0.04764748737216,77.00390625
0,1,3.06735,2463103207,1703322,1782,29034,0,25.7812442779541,2050.62475585938,124.380493164063,-0.813559710979462,-4.16351127624512,10.8825578689575,-0.00855211354792118,-0.00855211354792118,0.172263994812965,77.03125
0,1,3.087038,2463144243,1704060,1751,29034,0,26.9921722412109,2050.78125,124.441528320313,3.4360933303833,-0.00478564528748393,8.26480960845947,0.0696386322379112,0.0696386322379112,-0.0794124826788902,77.0390625
0,1,3.12705,2463185356,1704787,1815,29034,0,26.9921722412109,2050.6640625,124.407958984375,1.71804666519165,1.44526493549347,12.6628170013428,0.216246291995049,0.216246291995049,-0.71471232175827,77.0234375
0,1,3.18806,2463226243,1705498,1709,29034,0,28.1640586853027,2051.09375,124.404907226563,-1.48355007171631,1.66540467739105,9.52343368530273,0.0232128798961639,0.0232128798961639,0.1795943826437,77.14453125
0,1,3.249073,2463267815,1706224,1711,29034,0,28.1249885559082,2050.5859375,124.423217773438,3.83808755874634,-2.92881488800049,12.1268253326416,-0.0549778714776039,-0.0549778714776039,-0.01588249579072,77.0703125
0,1,3.266077,2463308820,1706912,1690,29034,0,29.3749866485596,2050.5078125,124.453735351563,3.99122834205627,-3.0484561920166,9.78664493560791,-0.34941491484642,-0.34941491484642,1.00548422336578,76.98828125
0,1,3.301095,2463350346,1707612,1641,29034,0,30.5859451293945,2050.9375,124.52392578125,1.30648124217987,0.430708110332489,6.84825849533081,-0.295658797025681,-0.295658797025681,0.0146607654169202,77.06640625
0,1,3.333093,2463392378,1708305,1718,29034,0,30.4296913146973,2050,124.508666992188,0.468993246555328,1.83768773078918,11.7439737319946,0.00733038270846009,0.00733038270846009,0.353080093860626,77.1015625
0,1,3.375099,2463434607,1708999,1606,29034,0,29.3749866485596,2050.7421875,124.533081054688,3.3308093547821,1.5074782371521,11.935399055481,-0.0232128798961639,-0.0232128798961639,0.164933606982231,77.0859375
0,1,3.467124,2463481184,1709798,1753,29034,0,30.5468730926514,2050.3125,124.566650390625,0.392422914505005,-1.54097783565521,10.6672029495239,-0.101403623819351,-0.101403623819351,0,77.07421875
0,1,3.606154,2463523279,1710515,1731,29034,0,30.5468730926514,2050.62475585938,124.627685546875,-0.847059190273285,-1.77068877220154,5.82413053512573,0.0928515195846558,0.0928515195846558,-0.0867428630590439,77.12109375
0,1,3.652445,2463568252,1711323,1737,29034,0,29.296875,2050.546875,124.627685546875,1.79461693763733,-1.94775760173798,10.4709920883179,0.0464257597923279,0.0464257597923279,0.353080093860626,77.234375
0,1,3.662164,2463608998,1712048,1813,29034,0,28.2031288146973,2050.6640625,124.655151367188,-8.14038276672363,2.24446773529053,11.1026973724365,-0.807563841342926,-0.807563841342926,0.470366239547729,77.15234375
0,1,3.681171,2463655672,1712858,1731,29034,0,25.7031326293945,2050.546875,124.67041015625,0.937986493110657,-0.966700375080109,8.7768726348877,-0.0549778714776039,-0.0549778714776039,-0.157603219151497,77.125
0,1,3.703172,2463697588,1713588,1694,29034,0,25.7031326293945,2050.078125,124.661254882813,1.90468680858612,0.425922423601151,7.771888256073,-0.217468023300171,-0.217468023300171,0.172263994812965,77.16015625
0,1,3.718186,2463744453,1714383,1724,29034,0,24.5312461853027,2049.84375,124.6337890625,-1.25383913516998,-0.205782756209373,6.44626426696777,-0.124616511166096,-0.124616511166096,-0.0867428630590439,77.234375
0,1,3.759194,2463787039,1715084,1619,29034,0,25.6249904632568,2050.15600585938,124.661254882813,-3.35952305793762,1.97647154331207,8.99222755432129,0.00733038270846009,0.00733038270846009,0.188146486878395,77.1953125
0,1,3.815189,2463832514,1715847,1658,29034,0,26.9140605926514,2050.3515625,124.67041015625,1.4261223077774,-2.28753852844238,11.3659076690674,0,0,0.250454753637314,77.13671875
0,1,3.816187,2463874195,1716532,1664,29034,0,26.9531307220459,2050.3125,124.676513671875,4.09651231765747,-5.66141843795776,18.43430519104,-0.00855211354792118,-0.00855211354792118,0.0390953756868839,77.19921875
0,1,3.864197,2463922490,1717383,1697,29034,0,27.4609336853027,2050.62475585938,124.688720703125,7.64746141433716,-2.172682762146,16.0941257476807,-0.00855211354792118,-0.00855211354792118,0.00733038270846009,77.2890625
0,1,3.929218,2463964591,1718122,1753,29034,0,28.3984241485596,2050.5859375,124.679565429688,0.449850678443909,0.516849756240845,9.28893756866455,-0.00855211354792118,-0.00855211354792118,-0.102625355124474,77.24609375
0,1,3.94923,2464008946,1718867,1681,29034,0,30.5078029632568,2050.0390625,124.679565429688,-2.64646196365356,-0.143569365143776,9.0113697052002,0.0537561401724815,0.0537561401724815,-0.0952949747443199,77.25
0,1,3.992224,2464050718,1719576,1645,29034,0,30.8984222412109,2054.1015625,124.868774414063,-0.875773072242737,-4.19222497940063,3.39780831336975,-0.0390953756868839,-0.0390953756868839,-0.276111096143723,77.28125
0,1,4.038253,2464097743,1720361,1773,29034,0,30.9374923706055,2053.78881835938,124.844360351563,-1.66540467739105,1.10548412799835,11.2606239318848,0.0610865242779255,0.0610865242779255,-0.0708603635430336,77.35546875
0,1,4.079335,2464139008,1721058,1651,29034,0,30.9765644073486,2053.8671875,124.859619140625,0.875773072242737,2.93838596343994,10.0259265899658,-0.0390953756868839,-0.0390953756868839,-0.180816113948822,77.30078125
0,1,4.12633,2464184753,1721849,1711,29034,0,29.7656059265137,2054.29663085938,124.859619140625,0.526420950889587,-0.689132928848267,12.6053895950317,0,0,0.101403623819351,77.27734375
0,1,4.184345,2464226559,1722553,1723,29034,0,28.5156078338623,2053.515625,124.850463867188,5.57527685165405,-3.42173647880554,14.1798658370972,0.0146607654169202,0.0146607654169202,-0.01588249579072,77.29296875
0,1,4.214353,2464273521,1723393,1723,29034,0,28.5156078338623,2053.75,124.801635742188,6.685546875,-2.36889433860779,16.1563396453857,0.0305432621389627,0.0305432621389627,-0.212581098079681,77.43359375
0,1,4.256364,2464315314,1724136,1773,29034,0,27.3828201293945,2054.1015625,124.819946289063,-0.976271688938141,3.14416885375977,4.9435715675354,-0.0708603635430336,-0.0708603635430336,0.0232128798961639,77.40234375
0,1,4.301373,2464360069,1724900,1714,29034,0,27.34375,2053.8671875,124.810791015625,-0.937986493110657,-1.65104758739471,10.892128944397,0.0305432621389627,0.0305432621389627,-0.299323976039886,77.41015625
0,1,4.34538,2464401089,1725606,1673,29034,0,27.3046798706055,2054.0234375,124.826049804688,-2.50289249420166,-0.736989378929138,8.34616565704346,0.0769690200686455,0.0769690200686455,0.124616511166096,77.5390625
0,1,4.389391,2464448210,1726401,1734,29034,0,24.9609355926514,2053.9453125,124.810791015625,0.76570326089859,1.5361921787262,8.24566745758057,0,0,0,77.5703125
0,1,4.4334,2464489706,1727087,1626,29034,0,9.49218845367432,2054.29663085938,124.850463867188,-2.90010118484497,1.41655099391937,11.3228368759155,-0.00855211354792118,-0.00855211354792118,-0.01588249579072,77.51953125
0,1,4.508081,2464566718,1728353,1597,29034,0,3.71092557907104,2054.140625,124.813842773438,-2.82353067398071,1.19641137123108,10.1120691299438,0.262672066688538,0.262672066688538,0.133168622851372,77.58203125
0,1,4.576096,2464630429,1729396,1580,29034,0,3.59374284744263,2053.671875,124.798583984375,2.57467722892761,1.01455676555634,11.251051902771,-0.0855211317539215,-0.0855211317539215,-0.306654363870621,77.6015625
0,1,4.617104,2464671247,1730086,1764,29034,0,3.6328136920929,2053.984375,124.8291015625,-2.06261301040649,0.736989378929138,7.80060195922852,0.844215750694275,0.844215750694275,0.737925231456757,77.58984375
0,1,4.653114,2464711304,1730753,1647,29034,0,2.38281488418579,2054.1796875,124.874877929688,-2.42153668403625,0.397208601236343,11.0691976547241,-0.0623082555830479,-0.0623082555830479,-1.10077917575836,77.609375
0,1,4.694119,2464752713,1731495,1776,29034,0,1.21092796325684,2054.3359375,124.893188476563,0.167497590184212,-1.41655099391937,13.6390895843506,0,0,0.37629297375679,77.59375
0,1,4.745135,2464800062,1732327,1825,29034,0,0,2053.8671875,124.887084960938,3.39302253723145,-1.21555399894714,12.0693979263306,0.0464257597923279,0.0464257597923279,-0.221133202314377,77.59375
0,1,4.787142,2464841809,1733055,1703,29034,0,0,2054.06225585938,124.89013671875,-5.53699159622192,3.45045018196106,10.1024971008301,0.324980318546295,0.324980318546295,0.0464257597923279,77.66015625
0,1,4.827151,2464886009,1733839,1764,29034,0,0,2053.7109375,124.856567382813,-1.17726874351501,1.7898313999176,8.77208805084229,0.0232128798961639,0.0232128798961639,0.24312436580658,77.6328125
0,1,4.868162,2464927522,1734561,1767,29034,0,0,2054.1796875,124.887084960938,0.89012998342514,-0.545563519001007,11.4233350753784,-0.0855211317539215,-0.0855211317539215,0.234572246670723,77.640625
0,1,4.91917,2464974631,1735373,1675,29035,68,0,2054.2578125,124.880981445313,-0.937986493110657,0.368494689464569,12.710675239563,0.0146607654169202,0.0146607654169202,0.0855211317539215,77.66796875
0,1,4.956201,2465015467,1736069,1709,29035,28,0,2050.546875,124.716186523438,-2.52203488349915,-0.406779855489731,9.32722282409668,-0.117286123335361,-0.117286123335361,-0.33841934800148,78.25
0,1,5.004396,2465060672,1736811,1629,29035,17,0,2045.78112792969,124.761962890625,0.626919567584991,0.0813559740781784,9.89192867279053,0.0610865242779255,0.0610865242779255,-0.21135938167572,77.6875
0,1,5.043225,2465102270,1737502,1609,29035,12,0,2050.8203125,124.722290039063,-2.02911353111267,-1.172483086586,11.0165557861328,-0.108734011650085,-0.108734011650085,0.22724187374115,77.70703125
0,1,5.089216,2465148542,1738250,1703,29035,9,0,2050.2734375,124.69482421875,1.01934242248535,-1.38783717155457,6.05384111404419,0.0696386322379112,0.0696386322379112,0.140499010682106,77.71484375
0,1,5.132228,2465191149,1738958,1614,29035,8,0,2050.5859375,124.713134765625,8.54716205596924,1.4021942615509,13.4141635894775,-0.00855211354792118,-0.00855211354792118,-0.0708603635430336,77.69140625
0,1,5.177235,2465236013,1739732,1806,29035,6,0,2050.703125,124.722290039063,3.93380045890808,3.64666175842285,12.4857492446899,0.355523556470871,0.355523556470871,-0.393397212028503,77.7578125
0,1,5.23026,2465276730,1740432,1719,29035,6,0,2050.62475585938,124.746704101563,-7.23111009597778,-1.2299108505249,8.34616565704346,0.0232128798961639,0.0232128798961639,-0.205250710248947,77.88671875
0,1,5.265259,2465323612,1741261,1718,29035,5,0,2050.46875,124.734497070313,-4.41715097427368,-3.42652201652527,6.42233610153198,0.0769690200686455,0.0769690200686455,0.0232128798961639,77.77734375
0,1,5.306266,2465365057,1741984,1803,29036,108,0,2050.8203125,124.746704101563,-0.454636335372925,0.842273533344269,9.37986469268799,0,0,0.00733038270846009,77.75390625
0,1,5.353275,2465411404,1742783,1702,29036,30,0,2050.62475585938,124.749755859375,0.306281298398972,0.229710966348648,10.8873434066772,-0.0623082555830479,-0.0623082555830479,0.133168622851372,77.77734375
0,1,5.421305,2465453688,1743514,1680,29036,18,0,2050.78125,124.755859375,-1.09591269493103,-0.459421932697296,7.28375244140625,0.0232128798961639,0.0232128798961639,-0.331088960170746,77.796875
0,1,5.440296,2465499036,1744273,1727,29036,13,0,2050.3515625,124.728393554688,-3.22552514076233,-0.727418065071106,7.57567691802979,0.271224141120911,0.271224141120911,-0.056199599057436,77.8125
0,1,5.481304,2465540194,1744951,1609,29036,10,0,2050.5078125,124.917602539063,1.23469650745392,-1.90947258472443,11.557333946228,-0.00855211354792118,-0.00855211354792118,0.149051114916801,77.87109375
0,1,5.539317,2465588422,1745751,1680,29036,8,0,2050.46875,124.9755859375,-4.73300361633301,-0.287138730287552,10.2939224243164,0.255341678857803,0.255341678857803,0.0781907513737679,77.828125
0,1,5.570323,2465629291,1746415,1620,29036,7,0,2051.171875,124.957275390625,-3.05802726745605,-0.961914658546448,15.1896381378174,0.0305432621389627,0.0305432621389627,-0.345749735832214,77.76171875
0,1,5.615334,2465674194,1747200,1713,29036,6,0,2050.5859375,124.951171875,1.32562363147736,0.837487936019897,7.40339374542236,0.0305432621389627,0.0305432621389627,0.0305432621389627,77.84765625
0,1,5.671347,2465715352,1747910,1806,29036,5,0,2051.0546875,124.954223632813,4.5894341468811,-0.976271688938141,11.9066858291626,-0.0623082555830479,-0.0623082555830479,0.117286123335361,77.890625
0,1,5.703354,2465762429,1748716,1670,29036,4,0,2050.9375,124.93896484375,3.07716989517212,2.55553460121155,7.65224695205688,-0.00855211354792118,-0.00855211354792118,0.156381502747536,77.9375
0,1,5.74437,2465803135,1749440,1771,29036,4,0,2050.89819335938,124.945068359375,-0.851844847202301,-1.83290219306946,10.6241331100464,-0.01588249579072,-0.01588249579072,0.117286123335361,77.890625
0,1,5.789377,2465847572,1750215,1794,29036,3,0,2050.9765625,124.96337890625,-1.71804666519165,1.15812623500824,4.60857629776001,0.0232128798961639,0.0232128798961639,-0.125838235020638,77.90625
0,1,5.830385,2465888885,1750932,1691,29036,3,0,2050.9765625,124.951171875,-1.79940271377563,-1.38783717155457,11.5716905593872,0.0537561401724815,0.0537561401724815,-0.205250710248947,77.890625
0,1,5.877395,2465935836,1751737,1705,29037,67,0,2050.62475585938,124.945068359375,2.6273193359375,4.84307336807251,13.7013025283813,-0.04764748737216,-0.04764748737216,-0.0794124826788902,77.9921875
0,1,5.939415,2465976555,1752406,1636,29037,28,0,2050.46875,124.954223632813,-0.617348253726959,1.99082839488983,6.87697219848633,-0.00855211354792118,-0.00855211354792118,-0.0867428630590439,80.30078125
0,1,5.965414,2466021966,1753164,1622,29037,17,0,2053.90625,125.115966796875,-1.82811641693115,-1.27776730060577,4.58464813232422,0.0928515195846558,0.0928515195846558,-0.040317103266716,77.94921875
0,1,6.008423,2466063455,1753841,1716,29037,12,0,2054.21875,125.131225585938,1.80418825149536,-1.18684005737305,4.41236543655396,-0.00855211354792118,-0.00855211354792118,0.156381502747536,77.98828125
0,1,6.051435,2466109946,1754625,1632,29037,9,0,2053.8671875,125.167846679688,0.0239282269030809,-1.61754810810089,10.5379915237427,-0.0940732434391975,-0.0940732434391975,-0.102625355124474,77.984375
0,1,6.093445,2466151644,1755358,1812,29037,8,0,2054.29663085938,125.167846679688,0.358923435211182,-1.10069835186005,9.30807971954346,-0.0390953756868839,-0.0390953756868839,-0.172263994812965,79.7265625
0,1,6.152456,2466199729,1756198,1803,29037,6,0,2053.82788085938,125.1953125,0.272781759500504,-0.722632467746735,13.7970151901245,-0.00855211354792118,-0.00855211354792118,-0.0794124826788902,78.00390625
0,1,6.183464,2466239976,1756911,1723,29037,5,0,2054.1796875,125.216674804688,2.86181592941284,0.531206607818604,11.1026973724365,-0.01588249579072,-0.01588249579072,-0.118507854640484,78.01953125
0,1,6.228477,2466284786,1757700,1790,29037,5,0,2053.9453125,125.1953125,-2.39282274246216,0.736989378929138,8.70030403137207,0.0537561401724815,0.0537561401724815,-0.370184332132339,78.0546875
0,1,6.274484,2466325161,1758395,1711,29037,4,0,2054.0234375,125.210571289063,1.77547442913055,2.0386848449707,10.3609218597412,0.0232128798961639,0.0232128798961639,-0.228463590145111,78.0703125
0,1,6.307492,2466366297,1759110,1689,29037,4,0,2054.3359375,125.20751953125,-0.416351169347763,-0.191425815224648,10.1886386871338,0.00733038270846009,0.00733038270846009,0.101403623819351,78.22265625
0,1,6.388646,2466408418,1759817,1721,29037,3,0,2053.9453125,125.192260742188,2.26361036300659,-1.30648124217987,7.90588617324829,0.201585531234741,0.201585531234741,0.0146607654169202,78.82421875
0,1,6.437858,2466449974,1760507,1625,29037,3,0,2054.0234375,125.213623046875,3.50787806510925,-1.14855492115021,13.9932270050049,0.255341678857803,0.255341678857803,0.0842994004487991,78
0,1,6.442866,2466491455,1761191,1691,29037,3,0,2053.671875,125.155639648438,0.406779855489731,0.148355007171631,10.1790676116943,0.26511549949646,0.26511549949646,0.0305432621389627,78.078125
0,1,6.472855,2466531986,1761844,1583,29037,3,0,2054.21875,125.1953125,-3.03888487815857,3.44087910652161,7.83888673782349,-0.0549778714776039,-0.0549778714776039,0.0305432621389627,78.06640625
0,1,6.528151,2466572746,1762538,1758,29037,3,0,2054.0234375,125.198364257813,-2.09611248970032,-2.94317197799683,13.730016708374,0.0305432621389627,0.0305432621389627,0.0855211317539215,78.0859375
0,1,6.558152,2466614854,1763247,1689,29037,2,0,2054.3359375,125.20751953125,-5.49392080307007,-1.97647154331207,13.1078815460205,0.0232128798961639,0.0232128798961639,0.0696386322379112,78.08203125
0,1,6.599173,2466655744,1763983,1760,29037,2,0,2054.21875,125.20751953125,-0.789631545543671,1.56012034416199,1.89032995700836,0.0842994004487991,0.0842994004487991,-0.0794124826788902,78.10546875
0,1,6.642207,2466697330,1764715,1826,29037,2,0,2054.0234375,125.204467773438,4.57029151916504,-3.81894516944885,12.2895374298096,-0.00855211354792118,-0.00855211354792118,0.204028993844986,78.1328125
0,1,6.681123,2466738607,1765435,1704,29037,2,0,2053.78881835938,125.210571289063,1.15812623500824,2.90967226028442,10.1742820739746,-0.34941491484642,-0.34941491484642,0.580321967601776,78.109375
0,1,6.722133,2466779348,1766154,1770,29037,2,0,2054.1015625,125.54931640625,-4.30708122253418,-3.61794805526733,10.2221384048462,-0.0549778714776039,-0.0549778714776039,-0.03176499158144,78.09375
0,1,6.761144,2466820221,1766855,1716,29037,2,0,2053.8671875,125.390625,-2.41196513175964,-0.693918585777283,8.79123020172119,-0.140499010682106,-0.140499010682106,-0.102625355124474,78.125
0,1,6.804152,2466862586,1767587,1679,29038,61,0,2054.21875,125.457763671875,4.76650285720825,-2.58424830436707,6.81954479217529,0.0696386322379112,0.0696386322379112,0.131946891546249,78.140625
0,1,6.84516,2466904058,1768284,1729,29038,26,0,2053.984375,125.515747070313,-1.34476637840271,0.856630504131317,4.39322280883789,0.0769690200686455,0.0769690200686455,-0.0708603635430336,80.25
0,1,6.898777,2466945493,1768964,1605,29038,17,0,2054.2578125,125.534057617188,-1.564906001091,-1.19641137123108,11.0644121170044,0.0537561401724815,0.0537561401724815,0.0549778714776039,78.07421875
0,1,6.927802,2466986676,1769648,1715,29038,12,0,2054.3359375,125.518798828125,2.34018063545227,0.914058208465576,9.74835968017578,0.0696386322379112,0.0696386322379112,-0.03176499158144,78.15625
0,1,6.969796,2467028500,1770330,1613,29038,10,0,2050.78125,125.363159179688,-4.66121864318848,1.27298164367676,10.0594263076782,-0.04764748737216,-0.04764748737216,-0.11117747426033,78.1484375
0,1,7.011803,2467070266,1771058,1736,29038,8,0,2050.7421875,125.3173828125,-0.708275496959686,-0.110069841146469,9.51386260986328,-0.0708603635430336,-0.0708603635430336,0.172263994812965,78.125
0,1,7.057822,2467112637,1771781,1764,29038,7,0,2050.5078125,125.259399414063,0.0239282269030809,-3.09631252288818,13.5290193557739,0.0610865242779255,0.0610865242779255,-0.299323976039886,78.1328125
0,1,7.105824,2467153982,1772508,1702,29038,6,0,2050.546875,125.247192382813,-0.0382851622998714,0.90927267074585,12.3565359115601,0.185703039169312,0.185703039169312,0.612086951732635,78.19921875
0,1,7.140833,2467194413,1773211,1780,29038,5,0,2050,125.234985351563,-2.91924357414246,3.57966279983521,10.6002054214478,-0.0940732434391975,-0.0940732434391975,0.502131223678589,78.015625
0,1,7.176841,2467235970,1773915,1665,29038,4,0,2050.9375,125.2685546875,-1.50269246101379,2.12482643127441,8.18345355987549,0.0842994004487991,0.0842994004487991,-0.166155353188515,78.16015625
0,1,7.218852,2467277304,1774643,1752,29038,4,0,2050.6640625,125.25634765625,-1.5361921787262,-1.60319113731384,9.79143047332764,-0.00855211354792118,-0.00855211354792118,-0.267558962106705,78.1796875
0,1,7.260864,2467318886,1775361,1759,29039,51,0,2050.8203125,125.277709960938,-2.56989169120789,-0.59820568561554,9.8536434173584,0,0,0.0146607654169202,78.2421875
0,1,7.300871,2467359283,1776061,1686,29039,25,0,2050.703125,125.265502929688,2.6751754283905,-1.80897402763367,4.96750020980835,0.0696386322379112,0.0696386322379112,-0.196698606014252,78.19921875
0,1,7.343879,2467401722,1776783,1734,29039,16,0,2050.78125,125.28076171875,0.440279364585876,-0.028713870793581,9.28415203094482,0.0610865242779255,0.0610865242779255,0.0781907513737679,78.24609375
0,1,7.39389,2467443867,1777478,1620,29039,12,0,2050.5859375,125.265502929688,-2.78045988082886,-0.459421932697296,9.74835968017578,0.0146607654169202,0.0146607654169202,0.124616511166096,78.234375
0,1,7.428898,2467485443,1778180,1680,29039,9,0,2050.5859375,125.259399414063,-0.957129001617432,-2.27318167686462,11.5190477371216,0.304210871458054,0.304210871458054,0.0232128798961639,78.12890625
0,1,7.46891,2467527310,1778864,1637,29039,8,0,2050.78125,125.091552734375,-0.770488917827606,-1.55533468723297,8.99222755432129,-0.0623082555830479,-0.0623082555830479,0,78.125
0,1,7.508916,2467567460,1779574,1726,29039,6,0,2050.8203125,125.140380859375,3.71844625473022,4.99621391296387,1.48355007171631,0.0769690200686455,0.0769690200686455,0.188146486878395,78.23828125
0,1,7.54993,2467607776,1780269,1800,29039,6,0,2050.5859375,125.177001953125,4.78564548492432,-3.44087910652161,5.66141843795776,0.0305432621389627,0.0305432621389627,-0.205250710248947,78.23828125
0,1,7.590935,2467649422,1780988,1678,29039,5,0,2050.5859375,124.246215820313,1.3686945438385,-0.0622133873403072,12.3948211669922,0.0610865242779255,0.0610865242779255,-0.1795943826437,78.25390625
0,1,7.635947,2467690930,1781704,1727,29039,4,0,2050.9375,124.105834960938,4.31186676025391,4.15872573852539,5.82891654968262,-0.0549778714776039,-0.0549778714776039,-0.267558962106705,78.28515625
0,1,7.672955,2467732367,1782390,1644,29040,82,0,2050.62475585938,124.227905273438,-4.17786884307861,2.04347062110901,8.29352378845215,0.26511549949646,0.26511549949646,-0.0794124826788902,78.22265625
0,1,7.722965,2467773537,1783082,1630,29040,30,0,2050.7421875,124.142456054688,-1.09591269493103,-0.521635353565216,11.2941226959229,-0.0232128798961639,-0.0232128798961639,-0.221133202314377,80.65234375
0,1,7.759872,2467814977,1783752,1652,29040,18,0,2050.5859375,123.4619140625,-1.62711942195892,-4.90050077438354,13.9692983627319,-0.0390953756868839,-0.0390953756868839,0.156381502747536,80.59375
0,1,7.800883,2467856690,1784483,1696,29040,13,0,2050.7421875,120.858764648438,0.698704242706299,-3.431307554245,12.0885400772095,0.201585531234741,0.201585531234741,-0.566882908344269,78.296875
0,1,7.8389,2467897869,1785200,1806,29040,10,0,2051.015625,118.118286132813,-1.10548412799835,3.41695070266724,7.57567691802979,-0.0232128798961639,-0.0232128798961639,0.149051114916801,78.33984375
0,1,7.879899,2467938940,1785905,1683,29040,8,0,2050.62475585938,116.02783203125,6.0969123840332,4.35015201568604,11.633903503418,-0.0232128798961639,-0.0232128798961639,0.219911485910416,78.33203125
0,1,7.925913,2467981615,1786648,1708,29040,7,0,2050.7421875,115.426635742188,1.83290219306946,-4.12044048309326,13.3806638717651,-0.0232128798961639,-0.0232128798961639,0.344527989625931,78.3359375
0,1,7.965918,2468023331,1787349,1707,29040,6,0,2053.90625,115.777587890625,0.95234340429306,-3.37388014793396,13.7013025283813,-0.00855211354792118,-0.00855211354792118,-0.040317103266716,80.6953125
0,1,8.017931,2468064441,1788057,1682,29040,5,0,2054.0234375,116.061401367188,-4.62771892547607,-4.29272365570068,9.16451072692871,0.0232128798961639,0.0232128798961639,-0.0952949747443199,78.2734375
0,1,8.04694,2468106247,1788773,1793,29041,56,0,2054.140625,116.110229492188,-0.330209523439407,2.344966173172,11.1984100341797,0.0464257597923279,0.0464257597923279,-0.11117747426033,78.4375
0,1,8.090949,2468149221,1789507,1676,29041,25,0,2054.4140625,116.046142578125,1.14376926422119,2.90967226028442,8.17866802215576,0.0378736443817616,0.0378736443817616,0,78.3359375
0,1,8.134958,2468191653,1790241,1690,29041,16,0,2053.7109375,115.798950195313,2.09132695198059,-0.416351169347763,12.8973140716553,-0.282219737768173,-0.282219737768173,0.259006857872009,78.36328125
0,1,8.176921,2468232670,1790919,1673,29041,12,0,2053.55444335938,115.682983398438,0.205782756209373,-3.08674120903015,10.6384897232056,0.0232128798961639,0.0232128798961639,0.204028993844986,78.3515625
0,1,8.214931,2468273743,1791628,1677,29041,9,0,2053.8671875,115.73486328125,-6.685546875,-4.15394020080566,7.27896642684937,0.00733038270846009,0.00733038270846009,-0.315206438302994,78.375
0,1,8.268951,2468315896,1792349,1827,29042,164,0,2053.4765625,115.63720703125,-4.70428943634033,-0.411565512418747,12.3230361938477,0.0928515195846558,0.0928515195846558,-0.0952949747443199,78.375
0,1,8.320963,2468357436,1793071,1691,29043,149,0,2053.59375,114.923095703125,0.057427741587162,6.24526739120483,9.6670036315918,-0.217468023300171,-0.217468023300171,0.847880899906158,78.34375
0,1,8.342975,2468401548,1793865,1796,29043,34,0,2053.90625,114.4775390625,0.210568383336067,-2.32582354545593,12.1698961257935,-0.0708603635430336,-0.0708603635430336,-0.180816113948822,78.46875
0,1,8.382969,2468442173,1794582,1809,29043,20,0,2053.8671875,113.8916015625,-1.02412807941437,-3.30209517478943,13.064811706543,0.0696386322379112,0.0696386322379112,0.21135938167572,78.4140625
0,1,8.433308,2468483509,1795321,1740,29043,14,0,2053.90625,112.945556640625,4.18265390396118,0.880558729171753,12.8398857116699,0.0378736443817616,0.0378736443817616,0.21135938167572,78.41015625
0,1,8.465313,2468523563,1796034,1822,29043,11,0,2053.78881835938,111.73095703125,-0.76570326089859,2.91924357414246,10.5188484191895,0.0464257597923279,0.0464257597923279,0.24312436580658,78.51953125
0,1,8.518327,2468565236,1796763,1731,29043,9,0,2053.4765625,109.701538085938,-0.5599205493927,1.54576349258423,7.94895648956299,-0.0232128798961639,-0.0232128798961639,0.0390953756868839,78.375
0,1,8.588341,2468607711,1797521,1752,29043,7,0,2054.06225585938,108.853149414063,1.38783717155457,-0.856630504131317,6.65204668045044,0.301767438650131,0.301767438650131,-0.221133202314377,78.44921875
0,1,8.641927,2468649030,1798242,1790,29043,6,0,2053.55444335938,108.676147460938,4.10608386993408,-2.44546461105347,6.82432985305786,0.0769690200686455,0.0769690200686455,0.0855211317539215,78.35546875
0,1,8.771956,2468691389,1798972,1682,29043,5,0,2053.515625,108.67919921875,0.655633449554443,-3.21595358848572,13.1748809814453,-0.0623082555830479,-0.0623082555830479,-0.134390354156494,78.44140625
0,1,8.818965,2468731714,1799667,1742,29043,5,0,2053.55444335938,108.724975585938,1.20119690895081,0.526420950889587,6.89611482620239,0.304210871458054,0.304210871458054,-0.0867428630590439,78.52734375
0,1,8.860973,2468772148,1800342,1652,29043,4,0,2053.9453125,108.743286132813,2.17746877670288,3.19202542304993,7.1162543296814,0.0537561401724815,0.0537561401724815,-0.056199599057436,80.78515625
0,1,8.935991,2468813613,1801046,1656,29043,4,0,2054.1796875,108.724975585938,1.17726874351501,0.200997099280357,10.7198457717896,0.00733038270846009,0.00733038270846009,0.0781907513737679,78.42578125
0,1,9.034014,2468854611,1801714,1648,29043,3,0,2053.90625,108.731079101563,1.43090796470642,-2.96231436729431,10.7102746963501,0.0464257597923279,0.0464257597923279,0.0464257597923279,78.52734375
0,1,9.071029,2468896138,1802395,1585,29043,3,0,2053.9453125,108.718872070313,0.100498549640179,-1.38305151462555,7.30289459228516,0.0769690200686455,0.0769690200686455,0,78.5078125
0,1,9.08904,2468937742,1803057,1656,29043,3,0,2053.6328125,108.657836914063,-4.75214576721191,0.607776999473572,12.131609916687,0.0232128798961639,0.0232128798961639,0.124616511166096,78.49609375
0,1,9.128049,2468978121,1803692,1533,29043,3,0,2053.59375,108.4716796875,5.45563554763794,-0.0239282269030809,8.01117038726807,0.0769690200686455,0.0769690200686455,0.408057987689972,78.50390625
0,1,9.165043,2469043105,1804787,1752,29043,2,0,2050.39038085938,107.33642578125,-7.80538702011108,4.90050077438354,2.74696040153503,0.146607652306557,0.146607652306557,-0.48747044801712,78.57421875
0,1,9.184048,2469106559,1805898,1735,29043,2,0,2050.234375,106.195068359375,-5.47956418991089,-3.40259408950806,14.0458688735962,-0.04764748737216,-0.04764748737216,0.234572246670723,78.69921875
0,1,9.203052,2469149397,1806632,1755,29044,55,0,2050.39038085938,105.889892578125,2.32103800773621,-1.85683047771454,6.1399827003479,0.0610865242779255,0.0610865242779255,-0.26022857427597,78.640625
0,1,9.263065,2469192636,1807364,1655,29044,25,0,2049.64819335938,105.718994140625,-1.96690022945404,-3.41216492652893,9.62393283843994,0.0696386322379112,0.0696386322379112,-0.212581098079681,78.65625
0,1,9.358086,2469235198,1808098,1787,29044,16,0,2050.39038085938,105.50537109375,0.933200895786285,6.27876663208008,9.20758152008057,0.0537561401724815,0.0537561401724815,-0.425162196159363,78.56640625
0,1,9.414099,2469280001,1808867,1714,29044,12,0,2050.4296875,105.337524414063,-2.47417879104614,-2.44067931175232,9.80578708648682,0.0146607654169202,0.0146607654169202,0.21135938167572,80.921875
0,1,9.433102,2469321568,1809625,1787,29044,9,0,2050.5078125,105.33447265625,0.67956155538559,2.68474698066711,11.3180503845215,0.0610865242779255,0.0610865242779255,0.0855211317539215,78.6328125
0,1,9.51413,2469368621,1810485,1917,29044,7,0,2050.234375,105.099487304688,-2.2109682559967,6.7286171913147,11.0835542678833,0.0378736443817616,0.0378736443817616,0,78.59375
0,1,9.532126,2469411450,1811273,1832,29044,6,0,2050.2734375,104.397583007813,-4.49850654602051,-2.60817646980286,15.184853553772,-0.0623082555830479,-0.0623082555830479,-0.180816113948822,78.609375
0,1,9.570133,2469454448,1812101,1886,29044,5,0,2050.1953125,103.302001953125,-2.03389930725098,-1.96690022945404,11.0979108810425,0.123394772410393,0.123394772410393,-0.102625355124474,78.625
0,1,9.608142,2469496038,1812921,2089,29045,52,0,2050.234375,99.2218017578125,-3.38823676109314,8.47537803649902,13.7395868301392,0.0696386322379112,0.0696386322379112,0.0549778714776039,78.63671875
0,1,9.628155,2469543417,1813896,2210,29045,23,0,2050.39038085938,92.919921875,-3.78065991401672,-1.16769742965698,0.531206607818604,0.0769690200686455,0.0769690200686455,-0.331088960170746,78.70703125
0,1,9.646159,2469584810,1814813,2145,29045,15,0,2053.1640625,88.9862060546875,-3.30209517478943,0.00957129057496786,4.36450815200806,-0.117286123335361,-0.117286123335361,0.172263994812965,78.625
0,1,9.68716,2469632268,1815965,2393,29045,11,0,2049.7265625,89.0777587890625,7.66660356521606,-8.07816982269287,26.2444801330566,-0.0708603635430336,-0.0708603635430336,-0.322536826133728,78.6484375
0,1,9.72417,2469674909,1817081,2677,29046,58,0,2050.078125,90.3106689453125,-12.0454692840576,13.9836559295654,-3.0484561920166,0.417831808328629,0.417831808328629,-1.50883710384369,78.5859375
0,1,9.743173,2469718352,1818298,2857,29046,25,0,2050.5859375,92.1661376953125,-20.5160598754883,27.2255344390869,-4.41715097427368,0.797789990901947,0.797789990901947,-0.597426235675812,78.640625
0,1,9.781182,2469759788,1819539,3009,29046,16,0,2050.85913085938,92.6910400390625,-47.1816749572754,8.90129947662354,5.44606447219849,-0.01588249579072,-0.01588249579072,-1.30480813980103,78.5546875
0,1,9.836203,2469800426,1820752,2866,29056,511,0,2050.62475585938,93.096923828125,20.5064907073975,32.0542526245117,-5.50827789306641,-0.535117924213409,-0.535117924213409,1.7434093952179,78.6015625
0,1,9.855199,2469840936,1821904,2860,29071,770,0,2050.6640625,97.1649169921875,-5.82891654968262,14.2420797348022,-2.82353067398071,0.929736852645874,0.929736852645874,-0.205250710248947,80.9375
0,1,9.908225,2469882455,1823083,2776,29085,730,0,2050.7421875,108.6181640625,-27.0436820983887,14.4574346542358,2.53160643577576,0.464257568120956,0.464257568120956,-1.51738929748535,78.63671875
0,1,9.961224,2469923323,1824169,2590,29099,651,0,2050.4296875,113.177490234375,20.1523513793945,1.75633192062378,1.79940271377563,0.913854360580444,0.913854360580444,0.36041048169136,78.6640625
0,1,10.014249,2469964827,1825187,2364,29113,602,0,2050.6640625,113.424682617188,-5.09671258926392,0.689132928848267,5.22592496871948,0.0537561401724815,0.0537561401724815,-0.707381963729858,79.765625
0,1,10.05226,2470006743,1826126,2155,29124,502,0,2053.82788085938,112.445068359375,-1.05762755870819,7.88674354553223,8.88215827941895,0.255341678857803,0.255341678857803,-0.056199599057436,78.6640625
0,1,10.070255,2470047264,1826962,1967,29132,451,0,2053.28125,111.273193359375,-8.44187927246094,8.92522811889648,12.3038949966431,0.0696386322379112,0.0696386322379112,0.400727599859238,78.6484375
0,1,10.12426,2470088530,1827737,1886,29139,293,0,2053.1640625,110.333251953125,1.06719887256622,6.58504819869995,3.70887517929077,-0.140499010682106,-0.140499010682106,0.62796950340271,78.671875
0,1,10.190275,2470130078,1828478,1758,29143,0,0,2053.90625,108.523559570313,0.808774054050446,5.47956418991089,13.2227382659912,-0.201585531234741,-0.201585531234741,0.101403623819351,78.6796875
0,1,10.261294,2470171887,1829204,1671,29150,346,0,2053.4765625,105.313110351563,-8.82473087310791,-1.91904377937317,13.6821603775024,-0.0940732434391975,-0.0940732434391975,0.140499010682106,78.6796875
0,1,10.321309,2470213872,1829886,1615,29156,328,0,2053.90625,101.644897460938,-6.96789979934692,-1.11026978492737,10.5427761077881,-0.0549778714776039,-0.0549778714776039,0.494800835847855,78.6953125
0,1,10.341311,2470254191,1830525,1478,29161,260,0,2052.890625,99.420166015625,-2.2396821975708,2.63210463523865,19.80299949646,-0.0940732434391975,-0.0940732434391975,0.204028993844986,78.6640625
0,1,10.355313,2470295073,1831251,1824,29167,303,0,2053.6328125,97.6806640625,-2.37368011474609,-2.37368011474609,9.74835968017578,-0.0232128798961639,-0.0232128798961639,0.289550095796585,78.69921875
0,1,10.374319,2470336671,1831967,1764,29174,329,0,2054.1796875,97.35107421875,-3.82851600646973,0.555134892463684,7.53260564804077,-0.0940732434391975,-0.0940732434391975,0.463035851716995,78.609375
0,1,10.396322,2470377003,1832675,1736,29181,253,0,2053.9453125,97.3846435546875,5.10628318786621,2.63210463523865,11.9306135177612,-0.310319542884827,-0.310319542884827,-0.0867428630590439,78.62890625
0,1,10.411328,2470419148,1833440,1912,29187,332,0,2053.4765625,97.3876953125,-2.82831621170044,6.56112003326416,12.9451713562012,-0.318871647119522,-0.318871647119522,-0.0708603635430336,78.6796875
0,1,10.507347,2470460963,1834238,1940,29194,353,0,2053.4375,97.3663330078125,-5.01057100296021,-4.25922441482544,-8.35573768615723,-0.04764748737216,-0.04764748737216,0.101403623819351,78.70703125
0,1,10.544358,2470502155,1835100,2070,29202,389,0,2053.7109375,97.3907470703125,-1.24426782131195,2.14396929740906,15.4432773590088,-0.01588249579072,-0.01588249579072,0.408057987689972,78.71875
0,1,10.59937,2470544040,1836015,2242,29211,463,0,2053.82788085938,97.8485107421875,-3.42652201652527,3.23988175392151,3.03888487815857,0.193033412098885,0.193033412098885,0.588874101638794,78.765625
0,1,10.619373,2470585107,1836944,2365,29220,418,0,2053.32006835938,98.480224609375,-21.9134712219238,10.4662055969238,15.6442747116089,0.216246291995049,0.216246291995049,0.604756593704224,78.73046875
0,1,10.63838,2470627481,1837925,2300,29229,466,0,2053.7109375,99.2095947265625,2.2109682559967,-5.63270425796509,6.73818826675415,0.239459171891212,0.239459171891212,-0.189368218183517,78.83203125
0,1,10.657381,2470669172,1838820,2062,29239,489,0,2053.1640625,99.212646484375,9.03051280975342,-0.823131024837494,11.4185495376587,0.107512280344963,0.107512280344963,1.90101253986359,78.73828125
0,1,10.677386,2470710792,1839748,2201,29248,425,0,2053.59375,99.1973876953125,5.51306343078613,-5.69491815567017,25.0911388397217,-0.00855211354792118,-0.00855211354792118,1.24127817153931,78.80078125
0,1,10.717395,2470752708,1840668,2220,29259,526,0,2054.4921875,99.2034912109375,1.91425800323486,2.61296248435974,9.35115146636963,0.139277264475822,0.139277264475822,-0.221133202314377,78.7265625
0,1,10.7394,2470795343,1841599,2328,29269,466,0,2053.55444335938,99.2095947265625,-6.67118978500366,5.90070009231567,30.1352081298828,0.262672066688538,0.262672066688538,-0.432492583990097,78.83203125
0,1,10.780412,2470836213,1842491,2115,29280,486,0,2053.984375,100.442504882813,1.24426782131195,5.43170738220215,6.59940528869629,-0.0781907513737679,-0.0781907513737679,-0.401949316263199,78.84375
0,1,10.822419,2470881207,1843474,2116,29291,545,0,2053.4765625,102.658081054688,12.074182510376,9.5330057144165,7.06361293792725,-0.01588249579072,-0.01588249579072,0.761138081550598,78.83203125
0,1,10.865428,2470922180,1844323,2024,29301,474,0,2053.75,103.298950195313,-18.8793716430664,-17.4388904571533,4.8335018157959,-0.140499010682106,-0.140499010682106,0.195476874709129,81.1796875
0,1,10.904148,2470963373,1845152,2147,29312,506,0,2053.984375,102.285766601563,6.21655321121216,-4.92442941665649,6.50369167327881,-0.01588249579072,-0.01588249579072,0.37629297375679,78.8515625
0,1,10.947148,2471006304,1846030,1984,29323,520,0,2050.62475585938,101.400756835938,5.54656267166138,5.09192657470703,6.92482852935791,-0.101403623819351,-0.101403623819351,0.502131223678589,78.890625
0,1,10.989156,2471048145,1846935,2114,29334,535,0,2050.6640625,101.580810546875,7.28375244140625,-13.1748809814453,19.6307163238525,-0.117286123335361,-0.117286123335361,0.329867213964462,78.87890625
0,1,11.038042,2471089260,1847834,2266,29345,555,0,2050.85913085938,101.79443359375,20.8701992034912,-6.65683269500732,21.9708957672119,-0.0855211317539215,-0.0855211317539215,0.690277695655823,81.19921875
0,1,11.072057,2471130999,1848755,2235,29357,544,0,2050.85913085938,101.7822265625,-9.1453685760498,-3.56530570983887,20.9754848480225,-0.0940732434391975,-0.0940732434391975,0.329867213964462,78.8046875
0,1,11.11505,2471173930,1849668,2072,29368,551,0,2050.2734375,101.480102539063,3.10109806060791,1.04805624485016,10.5284185409546,-0.0708603635430336,-0.0708603635430336,0.613308727741241,78.859375
0,1,11.15806,2471216897,1850566,2034,29379,505,0,2050.5078125,101.37939453125,3.46002149581909,-3.21116805076599,8.51366329193115,-0.04764748737216,-0.04764748737216,0.0464257597923279,78.8515625
0,1,11.224074,2471259665,1851475,2181,29391,564,0,2049.765625,101.300048828125,3.66101884841919,5.29770946502686,16.3525505065918,-0.108734011650085,-0.108734011650085,0.918741345405579,78.890625
0,1,11.262089,2471301185,1852375,2366,29402,542,0,2050.3515625,101.11083984375,-9.91107082366943,-17.0033988952637,6.05384111404419,0.262672066688538,0.262672066688538,0.635299861431122,78.82421875
0,1,11.284087,2471343143,1853319,2188,29415,571,0,2050.5078125,100.314331054688,-7.7910304069519,5.30249452590942,4.46500730514526,-0.131946891546249,-0.131946891546249,0.813672482967377,78.8515625
0,1,11.3371,2471385572,1854250,2176,29427,582,0,2050.85913085938,100.210571289063,27.0293254852295,14.5387907028198,13.9932270050049,-0.108734011650085,-0.108734011650085,-0.590095818042755,78.890625
0,1,11.371114,2471426684,1855151,2228,29438,577,0,2050.5078125,99.7222900390625,-5.62791872024536,2.02432799339294,-10.700701713562,-0.0940732434391975,-0.0940732434391975,0.635299861431122,78.8828125
0,1,11.410118,2471468254,1856083,2266,29451,616,0,2050.703125,98.834228515625,-9.52343368530273,6.8386869430542,17.9413833618164,-0.0390953756868839,-0.0390953756868839,1.05190992355347,78.875
0,1,11.453125,2471512479,1857063,2265,29463,573,0,2050.1171875,98.4344482421875,-14.0602254867554,9.38943576812744,-4.91964340209961,0.178372651338577,0.178372651338577,-1.40743350982666,78.90234375
0,1,11.495134,2471553211,1857988,2210,29475,579,0,2050.9375,98.443603515625,-5.91505765914917,-1.72283244132996,10.9830560684204,-0.497244298458099,-0.497244298458099,-0.0244346093386412,78.83984375
0,1,11.546145,2471595556,1858957,2322,29488,604,0,2050.89819335938,98.3734130859375,0.00478564528748393,-14.5579328536987,19.3818626403809,1.07756626605988,1.07756626605988,0.502131223678589,78.828125
0,1,11.580153,2471636498,1859890,2281,29501,625,0,2051.2109375,96.575927734375,19.6737861633301,-15.8691997528076,12.5048913955688,0.0610865242779255,0.0610865242779255,0.24312436580658,78.7890625
0,1,11.620168,2471677696,1860859,2446,29514,675,0,2050.703125,93.731689453125,2.44546461105347,16.4386920928955,2.77088856697083,0.169820547103882,0.169820547103882,0.24312436580658,78.80078125
0,1,11.663101,2471719344,1861853,2440,29527,647,0,2050.39038085938,93.0572509765625,-13.6390895843506,21.899112701416,-9.56650447845459,0.232128784060478,0.232128784060478,1.61024069786072,78.83203125
0,1,11.705109,2471761715,1862912,2385,29541,636,0,2050.62475585938,93.1396484375,-0.191425815224648,-12.1986093521118,12.4283208847046,0.162490159273148,0.162490159273148,-0.35430184006691,78.75390625
0,1,11.748122,2471802680,1863962,2528,29555,650,0,2049.92163085938,93.0908203125,-11.8301153182983,33.7196578979492,9.2458667755127,0.348193168640137,0.348193168640137,-0.416610062122345,78.71484375
0,1,11.787129,2471844155,1865019,2564,29569,687,0,2050.78125,91.4520263671875,-14.3808641433716,15.3188505172729,-16.3334083557129,-0.636521518230438,-0.636521518230438,1.65788817405701,78.67578125
0,1,11.828143,2471886295,1866112,2613,29584,736,0,2050.703125,89.3890380859375,-9.73878765106201,5.77148818969727,-4.22572469711304,-1.93644273281097,-1.93644273281097,-3.32432866096497,78.83984375
0,1,11.905935,2471927396,1867211,2704,29600,751,0,2051.0546875,89.41650390625,-9.24108123779297,-11.5286197662354,-2.79003119468689,-0.620639085769653,-0.620639085769653,-0.951728045940399,78.74609375
0,1,11.95406,2471969083,1868361,2810,29616,770,0,2050.62475585938,88.995361328125,0.837487936019897,-2.95752882957458,20.3533496856689,0.208915904164314,0.208915904164314,-2.36527037620544,78.67578125
0,1,11.962949,2472009715,1869511,2876,29632,851,0,2053.4375,87.481689453125,50.6129837036133,-20.4921321868896,26.9383983612061,0.48747044801712,0.48747044801712,3.49659252166748,78.80078125
0,1,11.992974,2472051822,1870723,2932,29649,864,0,2053.78881835938,86.9384765625,23.3730926513672,-1.06241321563721,37.2036094665527,1.72019648551941,1.72019648551941,-0.739146888256073,78.83203125
0,1,12.057573,2472093202,1871933,2952,29666,896,0,2053.90625,88.1134033203125,0.48813584446907,-1.91425800323486,43.0181655883789,-0.419053554534912,-0.419053554534912,0.172263994812965,78.8125
0,1,12.078564,2472136825,1873232,3004,29685,906,0,2053.984375,90.8843994140625,-36.9499702453613,-9.99721336364746,6.28833770751953,-0.03176499158144,-0.03176499158144,1.78250479698181,78.7421875
0,1,12.120573,2472179022,1874503,3016,29703,866,0,2053.90625,91.180419921875,19.0755825042725,-6.43669271469116,-45.640697479248,0.153938040137291,0.153938040137291,0.353080093860626,78.77734375
0,1,12.184591,2472223429,1875834,2986,29723,897,0,2053.515625,89.093017578125,-33.9972229003906,-4.48414993286133,-9.13101196289063,0.0769690200686455,0.0769690200686455,2.28585767745972,78.78515625
0,1,12.224596,2472264809,1877085,3003,29742,890,0,2054.609375,87.98828125,38.1463775634766,-4.16351127624512,-10.8203449249268,-0.0940732434391975,-0.0940732434391975,-1.75318324565887,78.82421875
0,1,12.250603,2472309691,1878453,3004,29762,911,0,2053.59375,88.0645751953125,-46.3059043884277,1.62711942195892,45.6933403015137,-0.155159771442413,-0.155159771442413,0.400727599859238,78.8671875
0,1,12.295614,2472350358,1879715,3033,29782,936,0,2053.75,88.092041015625,41.7643241882324,-11.7870435714722,35.5669174194336,-0.0708603635430336,-0.0708603635430336,1.99508583545685,78.7890625
0,1,12.334622,2472390754,1880979,3057,29801,895,0,2054.06225585938,88.14697265625,-13.2275238037109,-1.08155596256256,38.6488723754883,0.604756593704224,0.604756593704224,-1.29747784137726,78.84765625
0,1,12.374629,2472432276,1882271,3068,29820,919,0,2053.55444335938,88.323974609375,26.1439800262451,-13.0600261688232,-23.0380954742432,-0.698829829692841,-0.698829829692841,-1.32802104949951,78.8359375
0,1,12.415642,2472473662,1883559,3152,29840,926,0,2053.515625,88.3209228515625,-1.7850456237793,-32.3078918457031,32.5280303955078,-0.233350530266762,-0.233350530266762,0.831998467445374,78.8515625
0,1,12.461653,2472514277,1884840,3219,29861,990,0,2053.82788085938,88.134765625,-4.12522602081299,-24.1675090789795,-7.53739166259766,-0.434936046600342,-0.434936046600342,-2.43613052368164,78.85546875
0,1,12.497659,2472556231,1886176,3259,29882,1004,0,2053.8671875,89.3829345703125,-16.500904083252,17.9365997314453,-24.2105808258057,-0.403171062469482,-0.403171062469482,0.657290995121002,78.99609375
0,1,12.539673,2472597897,1887503,3217,29903,1028,0,2053.78881835938,94.9310302734375,-7.55174875259399,4.08215570449829,26.0434818267822,-0.0549778714776039,-0.0549778714776039,0.989601671695709,78.92578125
0,1,12.601684,2472639112,1888791,3067,29924,1068,0,2054.1015625,96.026611328125,49.4787902832031,20.7505588531494,-11.7966165542603,-0.279776275157928,-0.279776275157928,-1.24249982833862,78.8671875
0,1,12.64169,2472680153,1890026,2967,29946,1042,0,2053.984375,94.8089599609375,-7.61874723434448,-3.94815754890442,-17.8265285491943,0.0928515195846558,0.0928515195846558,1.64933621883392,78.921875
0,1,12.666701,2472722796,1891256,2841,29967,1012,0,2053.984375,92.1875,-17.6925315856934,10.3704929351807,5.35992288589478,-0.620639085769653,-0.620639085769653,0.368962615728378,78.921875
0,1,12.709711,2472765286,1892471,2880,29988,1005,0,2053.90625,93.9361572265625,6.52283430099487,-1.29212415218353,-6.31226634979248,0.123394772410393,0.123394772410393,-1.35978603363037,78.94921875
0,1,12.758724,2472806815,1893670,2910,30009,1050,0,2053.671875,95.2301025390625,-25.5984153747559,-9.36550807952881,-0.473778903484344,-0.713490605354309,-0.713490605354309,1.81426978111267,78.91015625
0,1,12.792731,2472847634,1894852,2884,30029,1010,0,2053.90625,94.9462890625,-11.8779726028442,-17.4915332794189,8.99222755432129,-0.14782939851284,-0.14782939851284,1.95599043369293,78.89453125
0,1,12.831775,2472889069,1896034,2858,30050,1021,0,2053.984375,94.1986083984375,6.88654327392578,-24.263219833374,7.2741813659668,-0.194255143404007,-0.194255143404007,-0.786794424057007,78.921875
0,1,12.897145,2472933815,1897307,2843,30072,1037,0,2054.1015625,93.0511474609375,12.0071840286255,27.7950267791748,7.6618185043335,-0.318871647119522,-0.318871647119522,1.90101253986359,78.953125
0,1,12.915136,2472974405,1898457,2850,30093,1037,0,2054.4140625,93.9117431640625,11.9784698486328,9.96849918365479,-16.9028987884521,-0.186924755573273,-0.186924755573273,0.172263994812965,78.88671875
0,1,12.974147,2473020728,1899785,2885,30116,1011,0,2050.546875,97.0703125,-25.3304214477539,-3.79980254173279,-1.83290219306946,-0.240680903196335,-0.240680903196335,-1.20096111297607,78.953125
0,1,13.003155,2473062160,1900978,2870,30137,1011,0,2050.546875,98.5382080078125,-8.6428747177124,-18.7836589813232,11.6386890411377,0.0305432621389627,0.0305432621389627,-2.53875589370728,78.96875
0,1,13.049783,2473108182,1902271,2785,30160,977,0,2050.546875,98.3001708984375,-2.8761727809906,-13.4907341003418,4.3214373588562,0.426383942365646,0.426383942365646,-0.621860802173615,78.87890625
0,1,13.093812,2473150579,1903428,2710,30182,983,0,2051.2109375,98.828125,-8.8917293548584,-7.8819580078125,8.22173881530762,0.294437050819397,0.294437050819397,0.140499010682106,78.89453125
0,1,13.140821,2473195102,1904652,2748,30204,1003,0,2050.6640625,101.925659179688,10.6480617523193,4.04865598678589,5.61356210708618,0.116064392030239,0.116064392030239,-1.69820535182953,78.9765625
0,1,13.191833,2473236381,1905758,2662,30225,983,0,2050.62475585938,102.9052734375,9.75793075561523,-12.3134660720825,13.2705945968628,-0.504574656486511,-0.504574656486511,0.549778699874878,78.94921875
0,1,13.227044,2473283490,1906978,2563,30248,966,0,2050.546875,103.55224609375,-11.8923292160034,-10.0211420059204,25.8520565032959,-0.178372651338577,-0.178372651338577,-0.456927180290222,78.97265625
0,1,13.276853,2473324275,1907997,2472,30267,964,0,2050.703125,104.180908203125,-9.02572631835938,9.2458667755127,3.38823676109314,-0.745255589485168,-0.745255589485168,-1.13254415988922,79.0078125
0,1,13.31186,2473369280,1909094,2385,30289,977,0,2050.3515625,104.788208007813,-3.88115835189819,-12.4570350646973,6.62333345413208,-2.76111078262329,-2.76111078262329,-0.526565849781036,78.91015625
0,1,13.352874,2473410790,1910101,2375,30308,961,0,2050.5078125,107.876586914063,-33.4277305603027,-20.3294200897217,13.3806638717651,0.480140089988708,0.480140089988708,1.29625594615936,78.98046875
0,1,13.401882,2473459233,1911248,2454,30331,967,0,2050.703125,107.839965820313,-1.46440744400024,17.4628200531006,12.299108505249,-0.535117924213409,-0.535117924213409,0.133168622851372,78.96484375
0,1,13.472897,2473530070,1912884,2382,30364,909,0,2049.84375,115.142822265625,7.94895648956299,8.21695327758789,-2.18704009056091,0.320093393325806,0.320093393325806,0.384845077991486,79.01171875
0,1,13.534914,2473593835,1914323,2188,30394,922,2.03123688697815,2050.46875,116.836547851563,-14.5435762405396,-16.4291210174561,11.9258289337158,0.95294976234436,0.95294976234436,1.01281452178955,79.1171875
0,1,13.579919,2473634307,1915253,2256,30412,909,30.5468730926514,2050.5078125,117.593383789063,-0.602991282939911,-5.28813791275024,3.19681096076965,-1.47340703010559,-1.47340703010559,-1.72141826152802,79.74609375
0,1,13.619935,2473678429,1916201,2113,30432,889,191.09375,2050.1953125,118.820190429688,18.8889408111572,7.19761085510254,19.5302181243896,-0.675616919994354,-0.675616919994354,1.38177704811096,79
0,1,13.677942,2473720062,1917126,2141,30449,848,188.4765625,2050.62475585938,119.412231445313,4.4458646774292,16.1180534362793,7.30768060684204,0.0537561401724815,0.0537561401724815,0.923628211021423,79.10546875
0,1,13.703947,2473763252,1918007,2008,30468,837,94.7656021118164,2048.2421875,119.845581054688,-2.84267330169678,-23.3491649627686,19.5110759735107,-0.233350530266762,-0.233350530266762,0.415388375520706,79.05859375
0,1,13.745958,2473805111,1918898,2055,30485,820,97.2265625,2050.39038085938,118.801879882813,9.15972423553467,-6.88654327392578,2.71346092224121,0.604756593704224,0.604756593704224,-2.30296182632446,79.04296875
0,1,13.792968,2473848814,1919783,2038,30503,829,106.679679870605,2050.6640625,108.334350585938,-1.87597298622131,3.51744914054871,9.31765174865723,0.185703039169312,0.185703039169312,0.863763451576233,79.1015625
0,1,13.84098,2473889841,1920624,2026,30520,829,65.0390701293945,2050.6640625,108.67919921875,-1.9860428571701,-0.406779855489731,8.0685977935791,0.332310706377029,0.332310706377029,-0.856433033943176,79.06640625
0,1,13.872988,2473931472,1921476,2049,30537,831,33.9843635559082,2050.5859375,111.0107421875,3.95772886276245,2.49810695648193,12.1842527389526,0.0537561401724815,0.0537561401724815,0.533896267414093,79.046875
0,1,13.914997,2473973689,1922331,2036,30554,804,18.7109413146973,2050.5078125,114.154052734375,-14.6871452331543,1.7036896944046,-3.83330178260803,0.0842994004487991,0.0842994004487991,-0.660956203937531,79.1328125
0,1,13.996264,2474016053,1923188,1996,30572,832,15.5078172683716,2054.06225585938,114.126586914063,1.56012034416199,-2.72303223609924,11.6147603988647,0.239459171891212,0.239459171891212,0.368962615728378,79.05078125
0,1,14.011024,2474058059,1924027,1976,30588,777,14.2578182220459,2053.78881835938,106.350708007813,20.33420753479,3.81415939331055,6.42712211608887,0.563217759132385,0.563217759132385,1.11543989181519,79.01171875
0,1,14.042025,2474099622,1924842,2015,30605,776,10.7031164169312,2053.8671875,104.776000976563,-11.8444728851318,3.59401988983154,5.68534660339355,-0.249233022332191,-0.249233022332191,-0.455705463886261,79.01171875
0,1,14.092406,2474141279,1925666,2003,30621,788,6.01562881469727,2053.6328125,104.562377929688,5.07278394699097,-0.071784682571888,11.3802642822266,-0.91507613658905,-0.91507613658905,-1.398881316185,79.078125
0,1,14.123046,2474181588,1926486,2000,30637,783,5.97655773162842,2053.4375,103.189086914063,1.68933284282684,1.82811641693115,3.72323203086853,0.201585531234741,0.201585531234741,2.06594634056091,79.03125
0,1,14.168053,2474223028,1927330,2107,30654,780,1.2499988079071,2054.06225585938,102.64892578125,23.0189533233643,8.13559722900391,13.6869459152222,0.123394772410393,0.123394772410393,-0.370184332132339,79.12109375
0,1,14.209064,2474264915,1928196,2104,30670,850,0,2053.8671875,100.164794921875,-30.4223480224609,-0.976271688938141,11.2127676010132,-0.14782939851284,-0.14782939851284,-0.700051546096802,79.09765625
0,1,14.247071,2474305722,1929057,2102,30686,743,0,2053.984375,100.088500976563,11.0691976547241,1.44047927856445,-6.85304403305054,-0.488692194223404,-0.488692194223404,-0.519235491752625,79.03515625
0,1,14.296084,2474347266,1929956,2130,30702,757,0,2054.29663085938,100.045776367188,-21.8369007110596,9.72443199157715,17.0943241119385,-0.690277695655823,-0.690277695655823,-1.51738929748535,79.09375
0,1,14.332092,2474390097,1930911,2263,30719,760,0.0390708446502686,2054.29663085938,99.493408203125,-11.7344026565552,-1.09591269493103,-3.70408964157104,0.426383942365646,0.426383942365646,-0.150272846221924,79.0703125
0,1,14.371099,2474430212,1931829,2345,30735,828,0.0390708446502686,2053.984375,99.8291015625,1.83290219306946,6.80997323989868,23.6937313079834,0.0610865242779255,0.0610865242779255,0.549778699874878,79.109375
0,1,14.435124,2474473564,1932805,2261,30752,779,0,2053.7109375,103.253173828125,19.2717933654785,6.96789979934692,1.16291177272797,0.271224141120911,0.271224141120911,1.50639367103577,79.11328125
0,1,14.457288,2474515329,1933685,2049,30767,737,0,2053.78881835938,103.466796875,3.77108860015869,4.35972261428833,5.28813791275024,-0.590095818042755,-0.590095818042755,1.1545352935791,79.078125
0,1,14.503141,2474556912,1934549,2015,30782,697,0,2054.21875,103.384399414063,-7.37467908859253,-7.96331357955933,13.7395868301392,-0.419053554534912,-0.419053554534912,-0.755029439926147,79.1484375
0,1,14.54335,2474599067,1935425,2131,30797,725,0,2054.1796875,103.384399414063,0.306281298398972,2.60817646980286,14.4095783233643,-0.613308727741241,-0.613308727741241,-0.755029439926147,79.109375
0,1,14.581151,2474640086,1936285,2225,30812,733,0,2053.90625,103.717041015625,14.2229385375977,3.4073793888092,-7.55174875259399,0.403171062469482,0.403171062469482,0.0390953756868839,79.140625
0,1,14.638161,2474682552,1937203,2066,30827,738,0,2054.21875,106.076049804688,-2.55074906349182,-1.01934242248535,-3.80458784103394,-0.318871647119522,-0.318871647119522,0.989601671695709,79.15625
0,1,14.670167,2474724223,1938105,2142,30842,697,0,2054.06225585938,109.054565429688,5.53699159622192,0.363709032535553,7.15453958511353,-1.42698121070862,-1.42698121070862,0.761138081550598,79.1484375
0,1,14.708176,2474766597,1938983,2030,30857,676,0,2053.984375,109.173583984375,0.0957129076123238,1.16769742965698,4.17308282852173,-0.574213325977325,-0.574213325977325,-0.982271313667297,79.1484375
0,1,14.750199,2474808007,1939814,2056,30872,693,0,2054.453125,108.85009765625,5.02492761611938,6.02512788772583,12.4905347824097,-0.511905074119568,-0.511905074119568,-0.377514719963074,79.1796875
0,1,14.793186,2474849830,1940642,1908,30885,677,0,2054.1015625,110.174560546875,-9.96849918365479,11.3228368759155,6.96789979934692,-0.527787566184998,-0.527787566184998,0.494800835847855,79.171875
0,1,14.832067,2474891360,1941463,1954,30899,672,0,2054.06225585938,110.003662109375,7.44646406173706,-4.84785842895508,12.2464656829834,-0.581543684005737,-0.581543684005737,0.337197601795197,79.1796875
0,1,14.892066,2474932341,1942250,1993,30913,657,0,2053.9453125,109.774780273438,-18.6783752441406,-4.67078971862793,-1.564906001091,-0.551000416278839,-0.551000416278839,-2.19300603866577,79.15625
0,1,14.914195,2474973132,1943037,1874,30926,659,0,2054.0234375,108.209228515625,-7.04925584793091,-2.44546461105347,11.0213403701782,-0.62796950340271,-0.62796950340271,-1.55648458003998,79.1875
0,1,14.954715,2475013294,1943813,1919,30940,650,0,2050.9765625,103.311157226563,3.59880542755127,6.68076086044312,1.59840548038483,-0.675616919994354,-0.675616919994354,4.13189268112183,79.1640625
0,1,14.99674,2475054692,1944592,1924,30953,658,0,2051.015625,103.030395507813,-14.4143629074097,-18.6161594390869,3.48873567581177,-0.806342124938965,-0.806342124938965,-0.755029439926147,79.1640625
0,1,15.043732,2475102633,1945580,1986,30971,739,0,2050.703125,101.67236328125,22.8370990753174,2.35453748703003,5.15892601013184,-0.75258594751358,-0.75258594751358,1.23272609710693,79.26953125
0,1,15.090949,2475144217,1946496,2190,30986,760,0,2050.703125,101.666259765625,-18.3385925292969,-3.37866568565369,4.80957365036011,-1.0311404466629,-1.0311404466629,1.39032924175262,79.1875
0,1,15.127957,2475187122,1947413,2111,31002,757,0,2049.92163085938,101.641845703125,-6.22612428665161,1.87118721008301,7.91067171096802,0.153938040137291,0.153938040137291,-2.69513750076294,79.15625
0,1,15.190971,2475229615,1948317,2238,31018,720,0,2050.39038085938,101.705932617188,17.0799694061279,-2.93838596343994,4.26401042938232,-1.4501941204071,-1.4501941204071,-1.36711633205414,79.140625
0,1,15.228979,2475271026,1949243,2193,31034,786,0,2050.546875,100.5859375,-0.914058208465576,-0.803988397121429,16.0031986236572,-0.511905074119568,-0.511905074119568,1.20951318740845,79.19140625
0,1,15.254989,2475313554,1950191,2280,31051,814,0,2050.6640625,98.1292724609375,21.2004108428955,0.378066003322601,14.5914325714111,-0.233350530266762,-0.233350530266762,0.667064845561981,80.84765625
0,1,15.296997,2475354347,1951131,2353,31068,878,0,2050.703125,97.772216796875,-8.59501838684082,0.961914658546448,16.338191986084,-0.379958152770996,-0.379958152770996,-0.01588249579072,80.390625
0,1,15.338005,2475396918,1952171,2454,31086,897,0,2050.2734375,96.807861328125,2.90010118484497,10.8490571975708,30.4941329956055,0.139277264475822,0.139277264475822,-2.75866746902466,79.23828125
0,1,15.379013,2475438351,1953192,2662,31104,894,0,2050.78125,94.6868896484375,12.2368955612183,-3.06281304359436,0.0478564538061619,-0.566882908344269,-0.566882908344269,-0.966388821601868,79.19140625
0,1,15.422026,2475478926,1954231,2519,31123,914,0,2050.39038085938,91.0430908203125,-29.1493644714355,-36.1411895751953,-4.78564548492432,1.40865528583527,1.40865528583527,-1.13987445831299,79.2265625
0,1,15.462031,2475520430,1955341,2648,31143,951,0,2050.46875,87.2283935546875,31.9250392913818,-4.80000257492065,25.0337104797363,1.02258837223053,1.02258837223053,3.29134178161621,79.17578125
0,1,15.507646,2475563137,1956537,2746,31164,990,0,2050.1171875,86.9415283203125,-10.8442726135254,-13.3758783340454,26.6225471496582,4.12334012985229,4.12334012985229,0.478918343782425,79.20703125
0,1,15.564105,2475605604,1957776,2871,31186,1027,0,2050.4296875,87.2100830078125,-8.18823909759521,-3.74237442016602,39.9314270019531,0.619417369365692,0.619417369365692,1.4367550611496,79.234375
0,1,15.589112,2475646322,1958991,2951,31208,1086,0,2050.3125,87.6708984375,19.6067886352539,-6.36490821838379,3.94815754890442,0.178372651338577,0.178372651338577,0.36041048169136,79.1875
0,1,15.629106,2475687418,1960248,3018,31231,1106,0,2050.89819335938,87.80517578125,39.5485725402832,-6.92004299163818,-28.8861560821533,0.472809702157974,0.472809702157974,-1.47707211971283,79.1953125
0,1,15.670125,2475729117,1961544,3149,31254,1136,1.99219584465027,2050.5078125,86.6912841796875,-34.3035087585449,4.24965286254883,-3.2207396030426,-0.34941491484642,-0.34941491484642,-1.95721220970154,79.23828125
0,1,15.714132,2475771154,1962871,3236,31278,1116,0.859379768371582,2050.39038085938,85.1959228515625,-36.4714012145996,-23.4018058776855,46.0091896057129,1.08489656448364,1.08489656448364,-3.29989409446716,79.1328125
0,1,15.752134,2475811176,1964153,3289,31302,1142,0,2051.015625,85.528564453125,-0.70348984003067,-9.20279598236084,30.2931346893311,0.0610865242779255,0.0610865242779255,-3.54423999786377,79.15625
0,1,15.800144,2475852997,1965500,3276,31326,1191,0,2050.39038085938,89.5599365234375,-6.34098052978516,28.6899433135986,56.9396095275879,-0.48136180639267,-0.48136180639267,-0.205250710248947,79.125
0,1,15.839295,2475897902,1966946,3213,31353,1228,0,2050.4296875,95.001220703125,-15.984055519104,-30.9583396911621,6.905686378479,1.1545352935791,1.1545352935791,-1.21073484420776,79.1640625
0,1,15.881302,2475940184,1968257,3040,31377,1128,0,2050.234375,92.3248291015625,-19.506290435791,12.3661079406738,-4.50807809829712,0.929736852645874,0.929736852645874,1.07023584842682,79.15625
0,1,15.930023,2475987295,1969640,2868,31404,1110,0,2052.3046875,90.460205078125,12.0550403594971,6.50369167327881,10.0498552322388,1.90712118148804,1.90712118148804,4.00605440139771,79.1953125
0,1,15.970033,2476029134,1970894,2942,31428,1160,0,2053.4375,90.972900390625,8.57587718963623,3.55094885826111,56.0781936645508,0.992045164108276,0.992045164108276,-3.59066581726074,79.171875
0,1,16.025044,2476073973,1972260,3014,31454,1190,0,2053.6328125,91.8609619140625,0.382851630449295,19.7934303283691,-19.0037975311279,-0.0781907513737679,-0.0781907513737679,0.698829829692841,79.15625
0,1,16.056053,2476114698,1973513,3065,31479,1162,0,2053.78881835938,93.1365966796875,-10.0354976654053,0.344566464424133,-8.39402198791504,0.294437050819397,0.294437050819397,-1.46241140365601,79.1953125
0,1,16.126796,2476156593,1974818,3155,31505,1220,0,2053.90625,92.6727294921875,28.8047981262207,2.31625247001648,2.8761727809906,0.224798396229744,0.224798396229744,1.34268176555634,79.171875
0,1,16.176792,2476197284,1976077,3123,31530,1254,0,2054.1015625,88.3270263671875,-22.9232406616211,1.07198464870453,-13.0025987625122,0.216246291995049,0.216246291995049,-0.235793977975845,79.15625
0,1,16.196795,2476238523,1977336,3134,31555,1274,0,2054.06225585938,85.0860595703125,-18.8841571807861,-0.162711948156357,35.1218528747559,-0.279776275157928,-0.279776275157928,0.604756593704224,79.1484375
0,1,16.241698,2476279853,1978608,3146,31581,1241,0,2054.29663085938,84.0606689453125,59.0500793457031,21.5354042053223,-10.6911315917969,0.464257568120956,0.464257568120956,-0.432492583990097,79.171875
0,1,16.355704,2476322395,1979943,3187,31608,1330,0,2053.90625,83.9263916015625,40.6636276245117,9.74357318878174,13.7874431610107,-0.0757472887635231,-0.0757472887635231,2.52165150642395,79.5078125
0,1,16.375713,2476363734,1981262,3220,31635,1368,0,2053.90625,83.7493896484375,-10.9686985015869,2.02911353111267,5.11585521697998,0.0232128798961639,0.0232128798961639,1.97920334339142,79.19921875
0,1,16.403726,2476405181,1982593,3209,31662,1300,0,2053.7109375,83.6639404296875,15.2709941864014,-7.0588264465332,11.7822589874268,6.36399412155151,6.36399412155151,-2.60839462280273,79.2109375
0,1,16.449255,2476445237,1983894,3250,31689,1352,0,2053.7109375,83.367919921875,-19.6642169952393,23.3539485931396,-36.6484718322754,0.929736852645874,0.929736852645874,1.16186571121216,79.23828125
0,1,16.546275,2476486602,1985243,3236,31718,1377,0,2054.140625,83.6761474609375,-43.362735748291,31.6570453643799,16.366907119751,-0.117286123335361,-0.117286123335361,1.42087256908417,79.31640625
0,1,16.60529,2476530058,1986677,3308,31748,1402,0,2053.6328125,83.7158203125,-18.0323123931885,-3.22552514076233,-9.32722282409668,-0.16371189057827,-0.16371189057827,1.88513016700745,79.21875
0,1,16.6583,2476572813,1988113,3338,31779,1423,0,2053.515625,83.69140625,-40.1994209289551,-25.3399925231934,19.8604278564453,0.317649930715561,0.317649930715561,4.09279727935791,79.26171875
0,1,16.683715,2476615024,1989523,3427,31810,1505,0,2053.78881835938,84.088134765625,15.7352018356323,24.6700019836426,58.9591522216797,0.403171062469482,0.403171062469482,0.761138081550598,79.25390625
0,1,16.764733,2476656265,1990905,3328,31840,1469,0,2053.75,84.1796875,-29.8097839355469,9.34157943725586,33.3990211486816,-1.00792765617371,-1.00792765617371,1.13132238388062,79.20703125
0,1,16.781738,2476698600,1992342,3356,31872,1542,0,2053.6328125,84.1094970703125,-14.8355007171631,9.78664493560791,1.93340075016022,-0.342084527015686,-0.342084527015686,3.80935573577881,79.23828125
0,1,16.80374,2476740868,1993753,3323,31904,1496,0,2053.78881835938,84.3902587890625,45.1525650024414,-26.9096832275391,42.6688117980957,0.271224141120911,0.271224141120911,7.06282377243042,79.3125
0,1,16.818749,2476782640,1995178,3472,31937,1555,0,2053.4765625,85.272216796875,6.61376190185547,40.1802787780762,-9.95414257049561,0.983493030071259,0.983493030071259,4.77574443817139,79.29296875
0,1,16.851755,2476824344,1996593,3391,31970,1594,0,2053.75,88.6444091796875,-10.810772895813,-7.54696226119995,-4.22572469711304,-0.101403623819351,-0.101403623819351,2.48255634307861,79.33984375
0,1,16.917772,2476871536,1998195,3316,32007,1590,0,2053.359375,91.2384033203125,-3.74237442016602,-16.9746837615967,11.1553392410278,-3.60532665252686,-3.60532665252686,-1.13132238388062,81.57421875
0,1,16.953777,2476911946,1999526,3391,32039,1534,0,2053.82788085938,88.4368896484375,-29.2067928314209,11.6769742965698,12.2703952789307,2.95292258262634,2.95292258262634,-1.16308736801147,79.234375
0,1,16.991784,2476957677,2000974,2997,32073,1517,0,2053.75,85.1104736328125,11.7631158828735,-8.56630611419678,33.3990211486816,0.852767884731293,0.852767884731293,-0.597426235675812,79.3203125
0,1,17.071802,2476999552,2002252,2999,32105,1499,0,2053.82788085938,83.819580078125,-43.1138801574707,-26.3880481719971,0.0191425811499357,-0.434936046600342,-0.434936046600342,3.4012975692749,80.34765625
0,1,17.134824,2477046792,2003769,3314,32141,1487,0,2049.92163085938,84.02099609375,9.26500988006592,28.3693046569824,26.4598331451416,0.0537561401724815,0.0537561401724815,1.39032924175262,79.375
0,1,17.190829,2477086830,2005036,3207,32172,1598,0,2050.9765625,84.6527099609375,29.9150676727295,35.3994178771973,-2.34018063545227,1.13865280151367,1.13865280151367,-0.416610062122345,79.3046875
0,1,17.228841,2477134878,2006600,3246,32209,1522,0,2049.609375,83.7249755859375,-26.4406890869141,-3.16809725761414,16.7497577667236,0.0928515195846558,0.0928515195846558,-0.04764748737216,79.34375
0,1,17.239842,2477176679,2007923,3141,32241,1498,0,2050.4296875,83.6181640625,-51.6945381164551,-0.157926306128502,13.2370948791504,0.464257568120956,0.464257568120956,1.65666651725769,81.6328125
0,1,17.28685,2477223322,2009459,3189,32277,1516,0,2050,83.062744140625,60.2608451843262,1.19641137123108,-27.6658153533936,-1.34146010875702,-1.34146010875702,-2.96269631385803,79.375
0,1,17.302863,2477265400,2010793,3117,32309,1496,0,2050.703125,82.84912109375,-3.14416885375977,-32.9395980834961,-20.9036998748779,0.123394772410393,0.123394772410393,4.37501668930054,79.4140625
0,1,17.352866,2477310699,2012237,3361,32343,1497,0,2050.5078125,82.598876953125,-12.5431756973267,44.7266387939453,31.1114807128906,-0.613308727741241,-0.613308727741241,-2.63282918930054,79.421875
0,1,17.397874,2477351410,2013543,3186,32374,1578,0,2050.3125,82.75146484375,65.1230621337891,16.314266204834,-65.7212677001953,1.75929188728333,1.75929188728333,4.57171535491943,79.40234375
0,1,17.435876,2477398189,2015007,3233,32410,1524,0,2050.62475585938,82.3455810546875,-0.655633449554443,-19.7599296569824,-1.03848505020142,0.394618928432465,0.394618928432465,-2.06716799736023,79.3359375
0,1,17.437874,2477440056,2016353,3121,32442,1504,0,2051.09375,82.4615478515625,41.295337677002,20.3294200897217,46.9280395507813,-0.736703515052795,-0.736703515052795,-1.50883710384369,79.69140625
0,1,17.452876,2477487087,2017845,3223,32478,1535,0,2049.6875,82.5439453125,65.9318389892578,-22.9950275421143,-28.7856559753418,0.185703039169312,0.185703039169312,-2.25531435012817,79.2421875
0,1,17.471879,2477527125,2019141,3226,32510,1570,0,2051.13256835938,82.6629638671875,-23.7080860137939,-16.0989093780518,-2.43110799789429,-0.852767884731293,-0.852767884731293,0.149051114916801,79.3984375
0,1,17.527479,2477573952,2020663,3294,32546,1595,0,2050.1953125,82.696533203125,33.1310234069824,30.7956275939941,36.5623321533203,-0.0708603635430336,-0.0708603635430336,-0.01588249579072,79.36328125
0,1,17.556485,2477615900,2022035,3255,32580,1615,0.937491655349731,2050.703125,83.148193359375,13.3519506454468,18.7310161590576,14.2899360656738,0.0610865242779255,0.0610865242779255,-1.04580128192902,79.296875
0,1,17.604495,2477663240,2023593,3248,32618,1630,0,2050.0390625,83.2672119140625,-12.3517503738403,36.3517608642578,5.27378129959106,-0.845437526702881,-0.845437526702881,0.777020573616028,79.2265625
0,1,17.645049,2477703368,2024913,3280,32651,1667,0,2050.546875,83.4716796875,13.5385904312134,-44.0040130615234,-7.35075092315674,0.0378736443817616,0.0378736443817616,-1.61146247386932,79.3359375
0,1,17.690077,2477748611,2026440,3349,32689,1689,0,2050.234375,87.7716064453125,55.1449928283691,-16.7354030609131,-18.6113758087158,-0.0940732434391975,-0.0940732434391975,0.149051114916801,79.2578125
0,1,17.755092,2477790744,2027862,3486,32725,1669,0,2050.78125,99.9237060546875,15.2183513641357,2.92881488800049,46.4686164855957,0.107512280344963,0.107512280344963,-2.12947630882263,79.3046875
0,1,17.814101,2477837643,2029372,3098,32764,1641,0,2050.546875,107.962036132813,-7.27896642684937,0.526420950889587,39.1274337768555,-0.14782939851284,-0.14782939851284,3.96695876121521,79.30859375
0,1,17.829105,2477879528,2030695,3100,32798,1614,0,2050.2734375,107.339477539063,6.905686378479,-10.6959180831909,8.96351337432861,-0.379958152770996,-0.379958152770996,0.0940732434391975,79.43359375
0,1,17.865115,2477923782,2031986,2832,32833,1593,0,2050.2734375,100.213623046875,-0.110069841146469,31.312479019165,8.97787094116211,-6.52037525177002,-6.52037525177002,-1.26082575321198,79.3203125
0,1,17.907129,2477966364,2033218,2912,32866,1554,0,2050.39038085938,96.1090087890625,19.7647151947021,16.754545211792,32.7242431640625,0.262672066688538,0.262672066688538,0.36041048169136,79.34765625
0,1,17.968141,2478008429,2034391,2731,32899,1531,0,2049.92163085938,90.240478515625,7.44646406173706,19.3579349517822,30.3888473510742,1.16186571121216,1.16186571121216,4.16365718841553,79.3828125
0,1,17.998144,2478056950,2035793,2882,32937,1565,0,2053.08569335938,84.8876953125,-0.851844847202301,-5.80977344512939,4.17308282852173,0.178372651338577,0.178372651338577,-0.896750211715698,79.51171875
0,1,18.041164,2478098910,2037036,2941,32971,1608,0,2054.21875,84.466552734375,6.40797901153564,-35.0357055664063,-41.3527603149414,-0.140499010682106,-0.140499010682106,-0.825889766216278,79.47265625
0,1,18.086166,2478140699,2038311,3062,33006,1638,0,2053.4765625,84.0576171875,-2.41675090789795,-27.5366039276123,0.153140649199486,-0.326202034950256,-0.326202034950256,-0.134390354156494,79.5390625
0,1,18.127374,2478182815,2039633,3242,33041,1622,0,2053.75,83.734130859375,-56.2696228027344,3.14416885375977,15.8261289596558,0.821002840995789,0.821002840995789,2.9846875667572,79.42578125
0,1,18.165182,2478224548,2040950,3219,33076,1732,0,2054.6875,83.2672119140625,-10.6767740249634,6.05384111404419,-1.00977122783661,0.712268888950348,0.712268888950348,-2.40436553955078,79.4140625
0,1,18.230315,2478267081,2042316,3254,33113,1788,0,2054.2578125,83.245849609375,-27.1872520446777,16.4291210174561,14.6153612136841,-0.861320018768311,-0.861320018768311,0.0146607654169202,79.46875
0,1,18.253315,2478308546,2043666,3257,33148,1722,0,2053.78881835938,83.2366943359375,40.7449836730957,4.70907497406006,9.78664493560791,0.983493030071259,0.983493030071259,1.68843150138855,79.421875
0,1,18.297329,2478350055,2045022,3284,33185,1733,0,2054.4140625,83.5784912109375,-0.789631545543671,-17.2426795959473,33.4133758544922,0.619417369365692,0.619417369365692,-2.90771842002869,79.40625
0,1,18.357346,2478390642,2046353,3240,33220,1746,13.1640434265137,2053.984375,94.7479248046875,-51.9003219604492,-1.37826585769653,30.3074913024902,0.332310706377029,0.332310706377029,0.140499010682106,81.75390625
0,1,18.376334,2478431193,2047677,3240,33256,1737,202.343734741211,2054.0234375,109.04541015625,-56.9300346374512,-0.722632467746735,-2.01475667953491,1.75929188728333,1.75929188728333,-0.496022582054138,79.53515625
0,1,18.433532,2478472630,2048955,2983,33289,1599,270.546844482422,2053.8671875,116.506958007813,25.1772785186768,12.5240345001221,37.8592414855957,-0.713490605354309,-0.713490605354309,-0.510683357715607,79.4453125
0,1,18.457366,2478514199,2050173,2855,33323,1590,297.890594482422,2053.8671875,117.361450195313,4.15872573852539,15.5533466339111,21.6789741516113,-1.18630027770996,-1.18630027770996,3.38663697242737,79.4296875
0,1,18.508623,2478555440,2051341,2810,33355,1545,325,2053.984375,117.745971679688,-44.6500701904297,8.48973560333252,13.5864477157593,-0.210137635469437,-0.210137635469437,-0.196698606014252,79.390625
0,1,18.552391,2478599852,2052559,2694,33389,1489,366.5625,2053.9453125,118.173217773438,8.81994438171387,-16.4291210174561,-10.5906324386597,-0.520457148551941,-0.520457148551941,0.847880899906158,79.37890625
0,1,18.582395,2478640855,2053644,2590,33419,1460,446.171875,2053.1640625,118.722534179688,9.64307498931885,-20.468204498291,35.9832649230957,-0.279776275157928,-0.279776275157928,1.14598309993744,81.73828125
0,1,18.625403,2478681662,2054693,2531,33448,1411,481.7578125,2053.55444335938,119.253540039063,-16.6636180877686,-3.09152698516846,-8.15952491760254,-0.76846843957901,-0.76846843957901,0.188146486878395,79.34765625
0,1,18.672623,2478722705,2055723,2498,33476,1335,421.171844482422,2054.0234375,119.601440429688,4.89092922210693,-15.4337062835693,12.3038949966431,0.107512280344963,0.107512280344963,0.667064845561981,79.34375
0,1,18.704424,2478763376,2056708,2375,33503,1301,427.031219482422,2053.8671875,119.357299804688,-2.51724934577942,0.512064039707184,16.4291210174561,-0.101403623819351,-0.101403623819351,-0.370184332132339,79.3671875
0,1,18.746436,2478804825,2057682,2391,33529,1277,299.0234375,2054.1015625,119.430541992188,-1.57926309108734,-5.17806768417358,-10.5332050323486,-0.117286123335361,-0.117286123335361,0.368962615728378,79.8828125
0,1,18.790455,2478846365,2058628,2288,33555,1230,296.6796875,2053.6328125,116.7236328125,5.89112949371338,1.37826585769653,-5.46042108535767,-0.101403623819351,-0.101403623819351,-0.283441454172134,79.3125
0,1,18.828453,2478887730,2059556,2178,33581,1268,285.976531982422,2054.1015625,116.058349609375,2.93838596343994,7.35553693771362,20.6739864349365,-0.233350530266762,-0.233350530266762,-0.26022857427597,79.3828125
0,1,18.885468,2478929220,2060489,2254,33608,1302,213.203109741211,2054.2578125,116.256713867188,30.2452793121338,4.91964340209961,-0.277567446231842,1.18507862091064,1.18507862091064,0.289550095796585,79.421875
0,1,18.911476,2478970870,2061425,2244,33634,1244,77.421875,2054.1015625,113.491821289063,5.12064075469971,-21.5832614898682,7.08754110336304,-1.09344875812531,-1.09344875812531,-1.398881316185,79.3203125
0,1,18.971485,2479013789,2062394,2284,33662,1344,31.7187309265137,2050.89819335938,85.4736328125,-7.42253541946411,2.43589329719543,-4.72821760177612,-0.14782939851284,-0.14782939851284,-0.519235491752625,79.359375
0,1,19.0345,2479055306,2063333,2215,33689,1318,18.6718711853027,2050.46875,84.063720703125,-5.06799793243408,5.46042108535767,20.5974178314209,-4.83072233200073,-4.83072233200073,-0.283441454172134,79.3515625
0,1,19.037497,2479096556,2064291,2331,33715,1309,9.21875190734863,2050.8203125,83.551025390625,-6.33619451522827,-6.19262504577637,6.7621169090271,-0.372627794742584,-0.372627794742584,-0.0708603635430336,79.3671875
0,1,19.081515,2479137443,2065276,2461,33743,1376,5.74219226837158,2050.7421875,83.4716796875,-44.7984275817871,7.01575613021851,6.81475877761841,-0.124616511166096,-0.124616511166096,0.36041048169136,79.3671875
0,1,19.120518,2479179258,2066352,2630,33773,1468,9.10157012939453,2050.39038085938,83.563232421875,-28.7377986907959,-13.9357995986938,24.3350067138672,0.728151381015778,0.728151381015778,2.93826174736023,79.3828125
0,1,19.165528,2479220895,2067484,2825,33803,1472,9.25779342651367,2050.703125,86.785888671875,28.9292240142822,-37.5960311889648,54.8626403808594,-0.590095818042755,-0.590095818042755,3.08609104156494,79.3671875
0,1,19.203537,2479262160,2068616,2817,33833,1534,0,2050.546875,90.3778076171875,-20.0470676422119,6.27876663208008,27.0293254852295,-0.434936046600342,-0.434936046600342,2.38726115226746,79.38671875
0,1,19.255533,2479302648,2069772,2936,33863,1476,0,2050.62475585938,90.1885986328125,11.6099758148193,0.655633449554443,6.35533761978149,-0.333532422780991,-0.333532422780991,-0.526565849781036,79.42578125
0,1,19.297439,2479345041,2070986,2970,33895,1577,0,2050.5859375,87.98828125,-44.8749961853027,34.2125778198242,-32.9826698303223,-0.497244298458099,-0.497244298458099,1.99508583545685,79.39453125
0,1,19.327462,2479386847,2072210,2979,33927,1547,0,2050.2734375,83.856201171875,39.3092918395996,18.9415836334229,7.67617511749268,0.674395203590393,0.674395203590393,2.85151886940002,79.3359375
0,1,19.369469,2479428401,2073439,3028,33959,1603,0,2050.0390625,83.50830078125,51.010196685791,36.595832824707,31.2598342895508,0.379958152770996,0.379958152770996,-1.46974170207977,79.3515625
0,1,19.43633,2479472181,2074734,2992,33992,1555,0,2050.62475585938,83.1878662109375,-57.2411041259766,-17.5346031188965,15.7447738647461,0.232128784060478,0.232128784060478,1.46118974685669,79.44921875
0,1,19.456334,2479513702,2075969,3006,34024,1531,0,2050.46875,83.319091796875,-9.16929626464844,4.16829681396484,38.1894493103027,-0.961501896381378,-0.961501896381378,-0.510683357715607,79.39453125
0,1,19.495343,2479553961,2077158,2999,34055,1590,0,2050.5078125,83.3587646484375,24.7800731658936,-8.41795063018799,16.5487613677979,0.348193168640137,0.348193168640137,2.96147465705872,79.32421875
0,1,19.540353,2479596617,2078442,3016,34087,1539,0,2050.234375,83.1634521484375,1.34476637840271,-20.2002105712891,9.7340030670166,0.519235491752625,0.519235491752625,6.52037525177002,79.3359375
0,1,19.582364,2479641145,2079762,3024,34122,1535,0,2050.46875,83.2611083984375,-0.411565512418747,-15.7926301956177,3.23509621620178,-0.302989155054092,-0.302989155054092,-3.88998985290527,79.390625
0,1,19.624374,2479681954,2081009,3020,34154,1618,0,2050.703125,84.11865234375,-14.4000062942505,-10.1934251785278,-27.2255344390869,-0.178372651338577,-0.178372651338577,-2.6633722782135,79.3515625
0,1,19.667382,2479722562,2082235,3042,34186,1572,0,2050.85913085938,89.7674560546875,8.63330364227295,-8.53280544281006,-23.9234390258789,0.0696386322379112,0.0696386322379112,3.47826671600342,81.76953125
0,1,19.722395,2479763745,2083502,3017,34218,1571,0,2050.5859375,95.5230712890625,-1.41655099391937,14.3186511993408,-17.381462097168,-0.34941491484642,-0.34941491484642,2.12825441360474,79.37890625
0,1,19.770406,2479805315,2084717,2899,34251,1542,0,2050.8203125,92.83447265625,1.74676048755646,33.7627258300781,-4.67078971862793,0.123394772410393,0.123394772410393,-1.46974170207977,79.3203125
0,1,19.792412,2479850275,2085973,2730,34284,1450,0,2050.2734375,83.966064453125,37.5960311889648,-8.1020975112915,-3.93858599662781,-0.0708603635430336,-0.0708603635430336,0.164933606982231,79.3828125
0,1,19.833421,2479891795,2087163,2818,34315,1503,0,2051.2890625,82.8643798828125,-4.59421968460083,14.5675048828125,-6.57069110870361,0.844215750694275,0.844215750694275,0.321315109729767,79.390625
0,1,19.875432,2479932513,2088329,2892,34346,1514,0,2050.5859375,82.476806640625,33.1740951538086,13.8783721923828,-30.9344120025635,-1.07756626605988,-1.07756626605988,0.643851935863495,79.421875
0,1,19.922439,2479975021,2089601,2911,34379,1540,0,2050.703125,82.647705078125,-8.61416244506836,2.30668115615845,18.6113758087158,0.248011291027069,0.248011291027069,-2.50699090957642,79.42578125
0,1,19.971456,2480017142,2090849,2988,34412,1643,0,2054.0234375,85.8062744140625,-18.7310161590576,-19.4536476135254,43.5876579284668,-0.131946891546249,-0.131946891546249,-0.0794124826788902,79.4140625
0,1,20.003461,2480058241,2092123,3020,34446,1592,0,2054.21875,98.2269287109375,-52.709098815918,-17.3383922576904,26.967113494873,0.806342124938965,0.806342124938965,-0.166155353188515,79.40625
0,1,20.040472,2480098975,2093378,3029,34479,1606,0,2053.6328125,98.74267578125,27.7950267791748,8.58066177368164,-5.31685209274292,0.510683357715607,0.510683357715607,1.90101253986359,79.390625
0,1,20.080475,2480139064,2094558,2874,34511,1571,0,2053.984375,95.709228515625,53.6040115356445,-19.6833591461182,4.33579444885254,-0.977384388446808,-0.977384388446808,-0.700051546096802,79.3515625
0,1,20.121485,2480180027,2095707,2691,34542,1468,0,2053.78881835938,83.36181640625,7.2741813659668,-5.24985313415527,69.272216796875,0.00733038270846009,0.00733038270846009,-3.17405557632446,79.390625
0,1,20.162741,2480221391,2096880,2803,34574,1554,0,2053.78881835938,83.2275390625,-40.6444854736328,-0.205782756209373,13.8544435501099,1.10810947418213,1.10810947418213,3.63709163665771,79.44921875
0,1,20.205759,2480265070,2098154,2853,34608,1541,0,2054.29663085938,83.1573486328125,47.2534637451172,1.20598256587982,-18.9942264556885,-0.613308727741241,-0.613308727741241,1.4367550611496,79.3203125
0,1,20.25908,2480306595,2099394,2929,34641,1567,0,2053.4765625,82.6507568359375,16.7928276062012,-34.9352111816406,49.8472862243652,0.426383942365646,0.426383942365646,3.36220216751099,79.38671875
0,1,20.288085,2480346776,2100621,3008,34674,1636,0,2053.59375,82.8704833984375,43.200023651123,-19.2765808105469,-25.9716968536377,-0.310319542884827,-0.310319542884827,-0.629191160202026,79.375
0,1,20.340098,2480387070,2101875,3017,34707,1583,0,2054.2578125,82.6934814453125,14.4430780410767,-7.4943208694458,-20.0566387176514,0.0464257597923279,0.0464257597923279,2.26997518539429,79.3515625
0,1,20.370106,2480428751,2103168,3203,34740,1565,0,2053.8671875,82.666015625,-23.105094909668,-15.7112731933594,27.9338130950928,-0.04764748737216,-0.04764748737216,1.61024069786072,79.34375
0,1,20.419119,2480472506,2104524,3147,34776,1664,0,2053.7109375,82.4737548828125,-67.5876617431641,1.81375956535339,59.3180732727051,0.50335294008255,0.50335294008255,1.58580613136292,79.30078125
0,1,20.455125,2480513361,2105805,3209,34810,1669,0,2054.29663085938,83.001708984375,84.6389312744141,36.3756904602051,-33.4468765258789,-0.620639085769653,-0.620639085769653,-1.27304303646088,79.296875
0,1,20.497134,2480555434,2107125,3153,34844,1627,0,2054.0234375,82.879638671875,81.494758605957,-35.2175674438477,52.9244499206543,0.364075690507889,0.364075690507889,-0.180816113948822,79.24609375
0,1,20.547148,2480597351,2108439,3175,34878,1692,0,2051.25,81.6314697265625,21.8799705505371,9.26979446411133,-4.17308282852173,0.169820547103882,0.169820547103882,0.745255589485168,79.28515625
0,1,20.580157,2480638917,2109762,3216,34914,1765,0,2053.8671875,83.4442138671875,21.2578353881836,-18.8841571807861,-5.90548610687256,-0.434936046600342,-0.434936046600342,1.86924755573273,79.29296875
0,1,20.62417,2480680517,2111097,3200,34950,1728,0,2053.984375,83.5693359375,-21.2961235046387,-35.8923416137695,-27.7423858642578,0.433714330196381,0.433714330196381,-0.0952949747443199,79.19140625
0,1,20.663172,2480721023,2112407,3209,34985,1764,0,2054.1796875,83.3831787109375,1.89032995700836,38.0937347412109,34.2652244567871,0.178372651338577,0.178372651338577,1.31091678142548,79.24609375
0,1,20.709185,2480761137,2113720,3218,35021,1703,0,2054.1796875,83.856201171875,15.6969165802002,31.8723983764648,36.7058982849121,1.51738929748535,1.51738929748535,4.06958436965942,79.1875
0,1,20.744189,2480803026,2115091,3224,35056,1687,0,2053.59375,83.75244140625,-1.89511561393738,-0.205782756209373,-14.5100765228271,-0.900415360927582,-0.900415360927582,5.40493535995483,79.1875
0,1,20.786201,2480844489,2116440,3315,35093,1809,0,2053.8671875,85.4827880859375,-26.0434818267822,-12.8255290985107,-40.6540603637695,1.36345112323761,1.36345112323761,-1.23394775390625,81.53515625
0,1,20.832209,2480891011,2117982,3327,35135,1842,0,2054.2578125,93.17626953125,61.0887641906738,5.5657057762146,11.3036947250366,-0.729373097419739,-0.729373097419739,-1.43064641952515,79.16015625
0,1,20.874755,2480932983,2119343,3187,35171,1744,0,2053.984375,99.1851806640625,-10.6480617523193,-12.3182516098022,8.31745147705078,-0.643851935863495,-0.643851935863495,-0.0244346093386412,79.125
0,1,20.921774,2480975758,2120673,3078,35208,1690,0,2054.1015625,98.822021484375,-24.1675090789795,-43.3435897827148,-1.49790692329407,-0.520457148551941,-0.520457148551941,-0.841772258281708,79.22265625
0,1,20.957779,2481016679,2121895,2952,35242,1630,0,2050.89819335938,95.0958251953125,-71.6219711303711,34.6528587341309,-0.234496623277664,0.604756593704224,0.604756593704224,3.50392317771912,79.16796875
0,1,21.019794,2481058393,2123100,2858,35276,1604,0,2050.9375,99.847412109375,-0.880558729171753,27.6801719665527,-9.76271724700928,0.829554975032806,0.829554975032806,3.69939994812012,79.21484375
0,1,21.079807,2481099405,2124286,2891,35309,1644,0,2050.6640625,109.243774414063,-18.1806659698486,-19.1042976379395,13.6295175552368,-0.272445887327194,-0.272445887327194,3.70795202255249,79.1484375
0,1,21.08981,2481142046,2125504,2834,35344,1595,0,2050.3125,106.552124023438,4.77128839492798,-1.87118721008301,60.9643325805664,0.208915904164314,0.208915904164314,1.31091678142548,79.1328125
0,1,21.127817,2481183664,2126655,2762,35377,1587,0,2051.015625,88.04931640625,-14.4335060119629,-3.57009124755859,-0.545563519001007,0.232128784060478,0.232128784060478,-2.20888876914978,79.125
0,1,21.168826,2481225137,2127804,2790,35410,1615,0,2050.62475585938,83.282470703125,-0.961914658546448,0.114855483174324,-11.47119140625,1.68965315818787,1.68965315818787,2.10504150390625,79.078125
0,1,21.207838,2481266219,2128955,2805,35443,1579,0,2050.9375,83.1329345703125,-33.5186614990234,-20.3916320800781,-1.18205440044403,-0.04764748737216,-0.04764748737216,-1.29747784137726,79.1328125
0,1,21.249848,2481308452,2130178,2934,35477,1642,0,2050.15600585938,83.0078125,29.843282699585,13.6343040466309,0.942772150039673,1.48073732852936,1.48073732852936,0.4544837474823,79.1015625
0,1,21.310858,2481349267,2131386,2965,35511,1668,0,2050.89819335938,83.514404296875,-8.35573768615723,-51.1394081115723,23.5884456634521,0.0305432621389627,0.0305432621389627,1.57847571372986,79.10546875
0,1,21.346866,2481391020,2132652,3038,35545,1645,0,2050.6640625,83.563232421875,0.363709032535553,-32.6189575195313,-8.51844882965088,-0.00610865233466029,-0.00610865233466029,1.42942464351654,79.1171875
0,1,21.374876,2481433350,2133954,3028,35580,1655,0,2050.89819335938,83.6151123046875,-24.6221446990967,41.7595443725586,33.4181594848633,1.09222710132599,1.09222710132599,1.38177704811096,79.11328125
0,1,21.416884,2481475152,2135225,3032,35615,1637,0,2050.3125,83.1268310546875,-34.2987174987793,22.1479663848877,22.7509574890137,-1.51250231266022,-1.51250231266022,-4.9736647605896,79.10546875
0,1,21.466895,2481519014,2136564,2955,35650,1616,0,2047.92956542969,82.073974609375,40.3238487243652,3.91944336891174,14.1607246398926,-0.474031418561935,-0.474031418561935,2.10504150390625,79.0546875
0,1,21.500903,2481559569,2137807,2995,35684,1619,0,2050.78125,82.8643798828125,-0.124426774680614,9.79143047332764,72.2297515869141,0.426383942365646,0.426383942365646,-2.34938764572144,79.078125
0,1,21.549913,2481606962,2139290,3244,35723,1643,0,2050.2734375,83.5723876953125,-34.7102851867676,-14.7972145080566,18.9272270202637,0.899193584918976,0.899193584918976,-1.29747784137726,79.02734375
0,1,21.598926,2481649730,2140620,3160,35759,1722,0,2051.09375,83.1878662109375,69.5162811279297,-11.2941226959229,22.9136695861816,0.913854360580444,0.913854360580444,2.3090705871582,79.1015625
0,1,21.638932,2481693396,2142000,3158,35797,1737,0,2050.8203125,83.2061767578125,-34.3178634643555,1.25862467288971,5.2402811050415,1.13132238388062,1.13132238388062,5.17647218704224,79.046875
0,1,21.678942,2481735413,2143332,3163,35832,1737,0,2050.78125,83.6090087890625,-22.8514556884766,-3.78544521331787,-46.0474815368652,0.197920337319374,0.197920337319374,1.92422544956207,79.0859375
0,1,21.737968,2481777198,2144653,3189,35868,1703,0,2050.5859375,83.502197265625,-31.2215480804443,-13.6103763580322,43.4440841674805,-0.0390953756868839,-0.0390953756868839,6.76350021362305,79.03125
0,1,21.758972,2481817973,2145956,3147,35903,1653,0,2051.4453125,86.8804931640625,-69.5354309082031,30.5037040710449,34.3752899169922,0.0537561401724815,0.0537561401724815,-4.03904104232788,79.04296875
0,1,21.801981,2481859753,2147278,3116,35938,1655,0,2050.85913085938,102.2705078125,-27.1441802978516,14.112868309021,35.0835647583008,1.21684348583221,1.21684348583221,1.01281452178955,81.3203125
0,1,21.85734,2481900451,2148503,2920,35971,1621,0,2050.89819335938,112.59765625,4.84307336807251,21.5736885070801,30.6233444213867,-0.643851935863495,-0.643851935863495,5.31086254119873,79.0859375
0,1,21.897349,2481943193,2149722,2787,36004,1553,0,2050.3125,114.2578125,21.9373970031738,-23.4161624908447,21.5593318939209,0.417831808328629,0.417831808328629,-1.04580128192902,78.94140625
0,1,21.925354,2481983908,2150844,2721,36036,1533,0,2052.96875,115.512084960938,13.7491588592529,14.6297178268433,29.0680103302002,0.689055979251862,0.689055979251862,0.124616511166096,79.0703125
0,1,21.976366,2482025102,2151948,2632,36067,1508,0,2054.375,116.12548828125,-55.5756988525391,19.9944267272949,-2.80917382240295,-0.76846843957901,-0.76846843957901,-1.18752193450928,79.01171875
0,1,22.011375,2482066368,2153031,2593,36097,1439,0,2053.75,116.635131835938,15.5294198989868,17.2953224182129,2.97667145729065,1.41842913627625,1.41842913627625,1.12277030944824,78.94140625
0,1,22.048384,2482107417,2154069,2498,36127,1388,0,2053.78881835938,110.049438476563,-37.988452911377,15.0077838897705,18.6305179595947,-0.706160187721252,-0.706160187721252,-0.872315526008606,78.96484375
0,1,22.092393,2482148105,2155069,2425,36155,1369,0,2054.1796875,101.5625,15.299708366394,2.20618271827698,2.45025038719177,-1.17163956165314,-1.17163956165314,2.05861568450928,78.92578125
0,1,22.140422,2482189489,2156060,2375,36182,1272,0,2054.1015625,97.71728515625,-28.4841594696045,-4.59421968460083,-6.62811851501465,-1.12521374225616,-1.12521374225616,-0.425162196159363,78.91796875
0,1,22.187431,2482230934,2157017,2300,36208,1239,0,2054.3359375,93.0419921875,-19.7886428833008,-3.79501676559448,-6.60419034957886,-1.21806526184082,-1.21806526184082,0.470366239547729,78.91015625
0,1,22.214439,2482271580,2157998,2335,36234,1291,0,2053.4765625,89.0716552734375,-2.73260354995728,1.08155596256256,27.5892467498779,-1.22539567947388,-1.22539567947388,1.16186571121216,78.9765625
0,1,22.262448,2482316080,2159078,2409,36262,1230,0,2054.0234375,94.3145751953125,36.2560501098633,11.4281215667725,-28.7569427490234,-1.78372645378113,-1.78372645378113,-1.3133602142334,78.97265625
0,1,22.301459,2482357740,2160104,2492,36289,1334,0,2053.75,99.951171875,-15.2087812423706,-22.2963218688965,-11.6051902770996,-1.51250231266022,-1.51250231266022,2.85151886940002,78.85546875
0,1,22.365473,2482402578,2161224,2507,36319,1376,0,2053.4765625,108.914184570313,-16.725830078125,17.0225410461426,-5.11585521697998,-1.92300379276276,-1.92300379276276,-1.72874867916107,78.94921875
0,1,22.384478,2482443376,2162234,2430,36346,1310,0,2054.140625,112.14599609375,-38.787654876709,-29.3168640136719,31.4847602844238,-1.09344875812531,-1.09344875812531,0.659734427928925,79.00390625
0,1,22.455491,2482494261,2163470,2377,36381,1332,0,2053.8671875,107.040405273438,25.4165630340576,-27.2016067504883,32.7290306091309,-0.140499010682106,-0.140499010682106,-0.35430184006691,79.10546875
0,1,22.499504,2482557072,2164980,2372,36422,1252,0,2053.78881835938,104.254150390625,1.4261223077774,5.10149812698364,14.4143629074097,0.216246291995049,0.216246291995049,1.12277030944824,79.1640625
0,1,22.540524,2482599478,2165989,2361,36450,1292,0,2053.90625,100.531005859375,-1.35912311077118,-9.63829040527344,4.77607440948486,0.0464257597923279,0.0464257597923279,0.800233483314514,79.1328125
0,1,22.583689,2482639641,2166941,2474,36476,1362,0,2053.8671875,98.91357421875,28.0917377471924,13.7826595306396,-2.83310198783875,1.75196158885956,1.75196158885956,-7.84961795806885,79.15625
0,1,22.62453,2482681578,2167976,2596,36506,1588,0,2053.671875,106.158447265625,-13.9549427032471,19.5493621826172,-14.4574346542358,1.96087741851807,1.96087741851807,8.26500701904297,79.109375
0,1,22.671539,2482726410,2169144,2612,36540,1444,0.0390708446502686,2053.8671875,115.371704101563,-10.5475625991821,-8.17866802215576,-3.93380045890808,3.96940231323242,3.96940231323242,5.3023099899292,79.09375
0,1,22.707547,2482766586,2170182,2566,36570,1451,33.2812385559082,2054.1796875,117.160034179688,-60.5097007751465,8.81037330627441,-22.3298225402832,-1.0311404466629,-1.0311404466629,-6.96875047683716,79.1171875
0,1,22.772568,2482809325,2171271,2509,36601,1403,282.382781982422,2054.06225585938,118.15185546875,20.6309185028076,-9.94457149505615,35.2749938964844,0.232128784060478,0.232128784060478,-1.19485247135162,79.1484375
0,1,22.809569,2482851344,2172319,2453,36629,1361,388.085906982422,2054.1796875,118.505859375,22.3011074066162,49.933422088623,16.5822620391846,-0.295658797025681,-0.295658797025681,-1.43064641952515,79.875
0,1,22.83656,2482892749,2173325,2407,36657,1307,402.421844482422,2054.0234375,118.954467773438,30.7094860076904,-2.82831621170044,1.56012034416199,-0.0855211317539215,-0.0855211317539215,-0.386066824197769,79.140625
0,1,22.874569,2482933607,2174284,2304,36683,1249,555.8984375,2053.82788085938,119.586181640625,-24.5790748596191,1.11505544185638,15.0556402206421,-1.24127817153931,-1.24127817153931,-4.54117250442505,79.1328125
0,1,22.956475,2482974452,2175215,2345,36708,1224,494.609344482422,2053.8671875,120.41015625,7.61396169662476,4.43629360198975,21.7603302001953,-0.0708603635430336,-0.0708603635430336,-2.7892107963562,79.140625
0,1,22.993471,2483015857,2176128,2173,36733,1184,355.15625,2051.171875,120.895385742188,-3.52223491668701,-8.44666385650635,22.4973201751709,-0.442266404628754,-0.442266404628754,-5.33529710769653,79.1640625
0,1,23.009478,2483057147,2177029,2149,36757,1212,202.96875,2050.3125,121.157836914063,12.7872438430786,18.185453414917,8.08774089813232,-0.829554975032806,-0.829554975032806,-7.7628755569458,79.125
0,1,23.040483,2483099113,2177938,2174,36783,1265,77.0702972412109,2050.546875,118.426513671875,0.540777981281281,6.08255529403687,1.88554430007935,-0.791681349277496,-0.791681349277496,3.78614282608032,79.109375
0,1,23.081518,2483140271,2178841,2205,36809,1267,25.7812442779541,2050.9765625,113.333129882813,-36.4139747619629,-84.6436996459961,-28.7952289581299,4.44221210479736,4.44221210479736,-2.74278497695923,79.125
0,1,23.124502,2483182851,2179784,2227,36836,1283,27.0312423706055,2050.6640625,110.855102539063,-18.2524509429932,-3.55573463439941,3.32123780250549,0.116064392030239,0.116064392030239,-1.80816113948822,79.23046875
0,1,23.166514,2483224436,2180717,2231,36862,1261,21.0937557220459,2050.39038085938,113.34228515625,-27.0532531738281,10.0067844390869,38.6488723754883,0.0305432621389627,0.0305432621389627,-0.141720727086067,79.171875
0,1,23.265531,2483267929,2181704,2250,36889,1227,19.8046855926514,2050.6640625,114.593505859375,25.9764823913574,-5.19721078872681,-8.62373352050781,-0.326202034950256,-0.326202034950256,-0.67683869600296,79.125
0,1,23.346553,2483309174,2182637,2265,36915,1221,16.2890548706055,2050.6640625,115.14892578125,22.8849544525146,-0.689132928848267,19.1377944946289,-0.543670058250427,-0.543670058250427,0.415388375520706,80.6328125
0,1,23.363552,2483350530,2183553,2254,36939,1184,8.00779438018799,2050.078125,115.625,-23.8947257995605,3.0436704158783,-10.6528453826904,0.00733038270846009,0.00733038270846009,-0.455705463886261,79.171875
0,1,23.382559,2483392348,2184464,2138,36965,1226,6.79686641693115,2050.1953125,113.580322265625,36.1076927185059,-0.483350187540054,-1.09591269493103,-0.388510286808014,-0.388510286808014,0.259006857872009,79.1484375
0,1,23.432569,2483437538,2185467,2199,36993,1200,4.41405200958252,2050.7421875,95.4071044921875,3.34516596794128,4.28315305709839,16.0797691345215,-0.543670058250427,-0.543670058250427,-3.27668118476868,79.1640625
0,1,23.484581,2483477647,2186402,2343,37017,1250,5.70312118530273,2050.546875,92.559814453125,-7.63789033889771,3.72323203086853,-2.79960250854492,0.0232128798961639,0.0232128798961639,2.07327651977539,79.1953125
0,1,23.495584,2483519369,2187400,2517,37043,1303,2.07030773162842,2050.46875,92.547607421875,-35.7679138183594,0.215354055166245,27.0053958892822,-0.318871647119522,-0.318871647119522,0.777020573616028,79.1640625
0,1,23.514586,2483559443,2188386,2535,37068,1225,2.03123688697815,2050.3125,97.0977783203125,7.59003353118896,7.66660356521606,3.06759881973267,0.403171062469482,0.403171062469482,-0.715934097766876,79.2421875
0,1,23.547594,2483601424,2189420,2446,37095,1274,4.4921932220459,2050.8203125,104.226684570313,12.8542442321777,-19.6737861633301,6.95354318618774,-0.0855211317539215,-0.0855211317539215,3.25957679748535,79.13671875
0,1,23.585604,2483643735,2190439,2351,37120,1151,3.24219465255737,2050.62475585938,108.206176757813,-7.39860725402832,-10.9447717666626,11.8157587051392,0.55710905790329,0.55710905790329,-6.95408964157104,79.18359375
0,1,23.644617,2483685124,2191368,2220,37145,1220,12.890606880188,2050.62475585938,110.137939453125,96.6796112060547,6.73340320587158,25.253849029541,4.03904104232788,4.03904104232788,-5.90828847885132,79.1953125
0,1,23.669628,2483726171,2192306,2283,37172,1302,12.8515663146973,2050.234375,112.405395507813,16.5870475769043,-1.51704955101013,6.25962400436401,-0.62796950340271,-0.62796950340271,0.0415388382971287,80.6640625
0,1,23.709635,2483768291,2193246,2253,37198,1198,15.2343807220459,2050.8203125,113.787841796875,-4.78085947036743,19.2000102996826,5.8432731628418,0.62796950340271,0.62796950340271,2.08182859420776,79.18359375
0,1,23.752644,2483809065,2194172,2248,37221,1156,10.3124980926514,2050.7421875,114.48974609375,-7.03011274337769,7.33160877227783,18.7740879058838,-0.249233022332191,-0.249233022332191,-1.8777996301651,79.21484375
0,1,23.79365,2483850597,2195095,2219,37246,1162,12.8124952316284,2050.62475585938,115.219116210938,8.34138011932373,11.47119140625,-4.37408018112183,-1.06290555000305,-1.06290555000305,-2.41291761398315,79.29296875
0,1,23.84467,2483891898,2196008,2165,37269,1142,12.8124952316284,2050.5859375,116.152954101563,3.0197422504425,11.4281215667725,13.7443733215332,-0.233350530266762,-0.233350530266762,-1.24983036518097,79.26171875
0,1,23.889672,2483932062,2196874,2192,37292,1132,10.4687509536743,2051.0546875,106.689453125,10.4709920883179,4.54636335372925,24.0287246704102,-0.745255589485168,-0.745255589485168,0.204028993844986,79.1640625
0,1,23.92068,2483977152,2197821,2109,37315,940,9.25779342651367,2050.62475585938,91.1590576171875,-2.45025038719177,9.87278652191162,25.8903427124023,-0.411723166704178,-0.411723166704178,-0.778242290019989,79.25
0,1,23.960691,2484018974,2198679,1988,37336,1019,11.9531154632568,2054.1015625,83.75244140625,9.94457149505615,-1.47397875785828,20.468204498291,-0.372627794742584,-0.372627794742584,-0.306654363870621,79.20703125
0,1,24.010701,2484065558,2199647,2120,37360,1085,10.8593702316284,2053.984375,83.55712890625,15.6155605316162,-13.945369720459,3.20638227462769,-0.34941491484642,-0.34941491484642,-2.03540301322937,79.28515625
0,1,24.05071,2484107521,2200584,2385,37381,1031,11.914044380188,2053.7109375,83.4320068359375,1.13898360729218,27.7519588470459,22.1048965454102,-1.13987445831299,-1.13987445831299,0.117286123335361,79.26171875
0,1,24.092718,2484150725,2201580,2500,37403,1024,8.32030200958252,2053.82788085938,83.026123046875,11.1074838638306,-4.37886571884155,-18.4247341156006,0.262672066688538,0.262672066688538,0.0464257597923279,79.26953125
0,1,24.132726,2484191073,2202551,2341,37425,1060,8.43748474121094,2054.1015625,82.9071044921875,-11.7870435714722,-11.2845516204834,17.6494617462158,0.890641570091248,0.890641570091248,0.0305432621389627,79.328125
0,1,24.173737,2484232801,2203604,2422,37448,1097,5.97655773162842,2053.75,82.55615234375,96.2297592163086,-0.636490821838379,-7.59960508346558,0.519235491752625,0.519235491752625,-1.09222710132599,79.29296875
0,1,24.220747,2484273296,2204653,2638,37472,1166,0,2054.06225585938,82.67822265625,-50.9096946716309,-0.138783723115921,-10.3082790374756,-0.891863226890564,-0.891863226890564,1.18630027770996,79.3203125
0,1,24.268761,2484314392,2205740,2642,37495,1171,0,2053.82788085938,83.013916015625,39.6107864379883,-8.03988456726074,-0.813559710979462,0.992045164108276,0.992045164108276,0.274889349937439,79.3359375
0,1,24.309767,2484356912,2206900,2759,37521,1207,0,2053.7109375,83.0291748046875,-11.2941226959229,0.885344386100769,6.63769006729126,1.54182386398315,1.54182386398315,4.21863508224487,79.36328125
0,1,24.339775,2484398643,2208069,2814,37546,1163,2.42185592651367,2054.06225585938,83.21533203125,-7.82931566238403,-7.91067171096802,-44.1140823364258,0.945619404315948,0.945619404315948,2.32495307922363,79.37890625
0,1,24.381784,2484440164,2209228,2818,37571,1223,0,2054.1796875,83.331298828125,-17.6398887634277,-10.0498552322388,9.21715259552002,1.3866640329361,1.3866640329361,-3.29256367683411,79.421875
0,1,24.426797,2484482015,2210394,2785,37595,1249,2.42185592651367,2053.671875,84.4268798828125,-49.5170707702637,0.0478564538061619,-2.23489618301392,1.42575943470001,1.42575943470001,-0.35430184006691,79.515625
0,1,24.529817,2484526489,2211639,2772,37621,1136,0,2053.90625,97.1771240234375,-5.04406976699829,7.82453012466431,24.7417850494385,-0.94684112071991,-0.94684112071991,-2.20278000831604,79.3828125
0,1,24.567827,2484566875,2212729,2693,37644,1112,1.2499988079071,2053.8671875,108.544921875,4.13001203536987,-3.80937361717224,26.1391944885254,-0.961501896381378,-0.961501896381378,-3.7555992603302,79.421875
0,1,24.58683,2484609199,2213830,2498,37667,1078,0,2054.3359375,108.77685546875,-69.5497817993164,-9.40857887268066,13.9884414672852,0.116064392030239,0.116064392030239,0.651182293891907,79.45703125
0,1,24.607834,2484650590,2214845,2444,37689,1057,0,2053.8671875,112.643432617188,23.0141677856445,4.38843631744385,16.1036968231201,0.0146607654169202,0.0146607654169202,-0.150272846221924,79.46875
0,1,24.649847,2484694630,2215870,2368,37711,1022,9.53122997283936,2053.55444335938,113.17138671875,5.81455898284912,-27.0053958892822,2.67996144294739,-0.75258594751358,-0.75258594751358,-1.27304303646088,79.4375
0,1,24.681851,2484737288,2216835,2163,37732,995,9.45311737060547,2053.984375,113.876342773438,18.5060920715332,3.86201596260071,5.5322060585022,4.22474431991577,4.22474431991577,3.78614282608032,79.4140625
0,1,24.723863,2484781903,2217808,2252,37753,948,17.8515605926514,2053.6328125,114.56298828125,-17.3958206176758,3.82851600646973,6.03469896316528,-0.04764748737216,-0.04764748737216,-3.45016670227051,79.4375
0,1,24.769873,2484823566,2218682,2018,37772,895,17.8515605926514,2053.2421875,115.17333984375,5.40777921676636,2.49810695648193,10.9782705307007,-0.140499010682106,-0.140499010682106,-1.06168377399445,79.4765625
0,1,24.818882,2484868449,2219583,2116,37792,882,20.2343769073486,2053.6328125,115.34423828125,28.5942306518555,-12.8973140716553,20.4107780456543,-0.117286123335361,-0.117286123335361,-0.691499471664429,79.390625
0,1,24.851403,2484910563,2220414,1915,37810,867,11.8750038146973,2053.4765625,115.5517578125,-10.6145610809326,-4.01515626907349,13.1988105773926,-0.434936046600342,-0.434936046600342,-1.04580128192902,79.40625
0,1,24.901414,2484959278,2221359,1891,37829,777,10.7421875,2054.06225585938,114.865112304688,1.90947258472443,0.918843865394592,7.24546718597412,0.285884916782379,0.285884916782379,-0.919963002204895,79.41796875
0,1,24.94244,2485000991,2222132,1847,37845,820,13.1250019073486,2053.6328125,106.338500976563,24.0191535949707,1.66540467739105,14.2277240753174,0.781907498836517,0.781907498836517,-1.76051354408264,79.41015625
0,1,25.011119,2485045950,2222968,1858,37862,727,9.1796817779541,2050.5859375,90.740966796875,18.3864498138428,-23.7942276000977,7.36032247543335,-0.388510286808014,-0.388510286808014,-2.04273343086243,79.51953125
0,1,25.047118,2485086794,2223788,1995,37878,803,10.3906097412109,2050.3125,83.8470458984375,6.96789979934692,7.2933235168457,9.37986469268799,0.241902634501457,0.241902634501457,-1.83870434761047,79.44921875
0,1,25.070122,2485129074,2224670,2146,37895,825,14.0234231948853,2050.703125,83.5693359375,29.6805725097656,5.04406976699829,-2.70388960838318,0.441044718027115,0.441044718027115,-1.57236707210541,79.4453125
0,1,25.121135,2485169084,2225534,2394,37912,842,11.6406078338623,2050.5078125,83.636474609375,2.05304193496704,-3.15852618217468,-42.1567497253418,0.604756593704224,0.604756593704224,-0.235793977975845,81.80078125
0,1,25.152146,2485210663,2226493,2185,37930,884,9.25779342651367,2050.8203125,83.7493896484375,32.6859588623047,-2.80438852310181,12.8207445144653,1.06168377399445,1.06168377399445,-6.62422275543213,79.4453125
0,1,25.195152,2485251845,2227511,2612,37949,954,0,2050.7421875,83.8775634765625,62.725456237793,0.521635353565216,20.6979160308838,-0.287106662988663,-0.287106662988663,1.20096111297607,79.53515625
0,1,25.23516,2485292552,2228574,2572,37970,1004,2.03123688697815,2050.78125,83.97216796875,-35.1170654296875,-12.1124687194824,-4.14436864852905,1.72874867916107,1.72874867916107,0.981049537658691,79.515625
0,1,25.28513,2485334037,2229647,2609,37991,1116,0,2050.3125,84.1796875,33.7292289733887,25.0959243774414,10.3896360397339,0.591317594051361,0.591317594051361,-2.97002696990967,79.54296875
0,1,25.317136,2485375525,2230811,2884,38014,1181,0,2050.546875,84.5794677734375,-46.9950408935547,10.0642118453979,2.52203488349915,-0.604756593704224,-0.604756593704224,3.11785626411438,79.5546875
0,1,25.357144,2485415844,2231959,2857,38036,1110,0,2050.6640625,84.1094970703125,-24.9667110443115,-22.3633193969727,18.1710948944092,-0.302989155054092,-0.302989155054092,-1.64322745800018,79.578125
0,1,25.398152,2485457248,2233163,2934,38059,1118,0,2050.1171875,84.1400146484375,64.7402114868164,-17.8839569091797,41.0895538330078,0.674395203590393,0.674395203590393,0.769690155982971,79.5390625
0,1,25.441578,2485500323,2234434,2990,38084,1141,0,2050.5078125,83.65478515625,15.381064414978,-17.032112121582,24.2488651275635,-0.474031418561935,-0.474031418561935,-0.448375105857849,79.546875
0,1,25.49579,2485542741,2235710,3043,38108,1208,0,2050.703125,83.6578369140625,25.3495616912842,-8.09252643585205,-40.9076957702637,0.456927180290222,0.456927180290222,0.0855211317539215,79.5625
0,1,25.52558,2485584182,2236972,3051,38133,1222,0,2050.546875,83.6639404296875,33.3798751831055,-28.1539516448975,13.9788703918457,0.169820547103882,0.169820547103882,-1.13254415988922,79.5703125
0,1,25.566589,2485625476,2238240,3085,38157,1178,0,2050.78125,84.051513671875,-3.76151704788208,22.2197494506836,-12.4666051864624,0.38728854060173,0.38728854060173,-2.122145652771,79.47265625
0,1,25.612617,2485671433,2239662,3048,38185,1204,0,2050.2734375,85.0830078125,-9.74835968017578,-12.1938247680664,17.9461708068848,0.00733038270846009,0.00733038270846009,-0.134390354156494,79.51953125
0,1,25.661824,2485712960,2240980,3153,38212,1285,0,2050.703125,85.8306884765625,-11.6434745788574,-17.7978172302246,66.3098983764648,0.116064392030239,0.116064392030239,-1.46241140365601,79.578125
0,1,25.695637,2485754763,2242325,3210,38238,1270,0,2050.4296875,89.1571044921875,-39.6586456298828,-16.9603290557861,-24.5072917938232,1.04580128192902,1.04580128192902,0.847880899906158,79.60546875
